n_lines = 44
Unit of Inte: [ph/(s m^2 sr)]
Assumed plasma length [m] = 0.00500000
Te [eV] = 0.53409547+/-0.048412516
Intercept = 33.774097+/-0.58942472
bestnorm: the value of the summed squared residuals for the returned parameter values.
bestnorm = 10.387215

 Wavelength(nm) wavel_l(nm) wavel_u(nm) Aki(s^-1) fik Ei(eV) Ek(eV) gi gk Iki ln(Iki/gk*Aki)
       379.20150       379.13123       379.38797       900000.00    0.0019400000       0.0000000       3.2686810       4.0000000       4.0000000   4.9295218e+18       27.945329
       400.68350       400.56757       400.83926       760000.00    0.0024500000      0.24922100       3.3426710       6.0000000       8.0000000   4.2997060e+18       27.284563
       402.69440       402.62238       402.84586       3600000.0    0.0088000000      0.75244900       3.8304510       4.0000000       4.0000000   3.4426045e+18       26.200021
       404.08700       403.96509       404.38876       730000.00    0.0022000000      0.69692000       3.7643110       10.000000       12.000000   1.2399979e+19       27.978520
       406.13990       406.11304       406.31345       6500000.0     0.032200000      0.75003200       3.8019330       2.0000000       4.0000000   5.3600401e+18       26.051896
       406.46300       406.41370       406.61426       3830000.0    0.0095000000      0.75244900       3.8019330       4.0000000       4.0000000   2.7139516e+18       25.900268
       406.79080       406.76474       406.94040       840000.00    0.0028000000      0.24922100       3.2962350       6.0000000       8.0000000   4.1002659e+18       27.136985
       413.61980       413.49451       413.82635       1820000.0    0.0035000000      0.49146300       3.4881570       8.0000000       6.0000000   5.7731949e+18       26.993651
       414.78910       414.72110       415.15643       1790000.0    0.0036900000      0.69692000       3.6851760       10.000000       8.0000000   7.0552535e+18       26.923136
       438.60680       438.48343       438.80887       1030000.0    0.0045000000      0.75244900       3.5784330       4.0000000       6.0000000   4.1436970e+18       27.231291
       457.43060       457.32382       457.72037       1230000.0    0.0038400000       0.0000000       2.7096830       4.0000000       4.0000000   1.2271851e+19       28.545021
       461.95120       461.87686       462.16296       5300000.0     0.011200000       1.1472790       3.8304510       6.0000000       4.0000000   7.2560890e+18       26.558861
       466.91430       466.76559       467.14160       2850000.0    0.0062000000       1.1472790       3.8019330       6.0000000       4.0000000   4.7174347e+18       26.748673
       474.01630       473.96353       474.22797       5000000.0     0.016900000       1.2368430       3.8517350       4.0000000       4.0000000   3.6208793e+18       25.922006
       478.09350       478.03458       478.41992       2160000.0    0.0059000000       1.3254310       3.9180180       10.000000       8.0000000   4.9113711e+18       26.373025
       481.27490       481.12628       481.51419       1200000.0    0.0042000000       0.0000000       2.5754390       4.0000000       4.0000000   1.4797083e+19       28.756835
       482.54290       482.38068       482.76959       2630000.0    0.0092000000       1.3940320       3.9627110       6.0000000       6.0000000   5.1743355e+18       26.515989
       488.39500       488.33939       488.55142       1110000.0    0.0053000000       1.1472790       3.6851760       6.0000000       8.0000000   3.4264321e+18       26.678739
       492.60050       492.47580       492.90366       1530000.0    0.0056000000      0.75244900       3.2686810       4.0000000       4.0000000   5.8698029e+18       27.589280
       506.78700       506.67062       506.98517       2920000.0    0.0084000000       1.5169170       3.9627110       8.0000000       6.0000000   3.8346293e+18       26.111751
       513.64670       513.44525       513.89160       4500000.0     0.017800000      0.75003200       3.1631630       2.0000000       2.0000000   1.1895822e+19       27.909984
       514.16200       514.08307       514.33838       1200000.0    0.0023800000      0.75244900       3.1631630       4.0000000       2.0000000   3.7292401e+18       28.071757
       514.36870       514.33838       514.53003       1680000.0    0.0044000000       1.1472790       3.5570210       6.0000000       4.0000000   2.5642218e+18       26.667588
       514.76200       514.68970       515.04132       900000.00    0.0023800000       1.3940320       3.8019330       6.0000000       4.0000000   2.7462740e+18       27.360332
       540.25070       539.92932       540.46613       1350000.0    0.0029600000       0.0000000       2.2942930       4.0000000       2.0000000   1.4327855e+19       29.299975
       543.52670       543.46191       543.83337       1070000.0    0.0071000000       1.3576540       3.6381250       4.0000000       6.0000000   3.6631934e+18       27.069938
       562.06840       561.92975       562.31384       600000.00    0.0035500000       1.5169170       3.7221540       8.0000000       10.000000   2.7152755e+18       26.838155
       563.57100       563.25769       563.95789       360000.00    0.0017000000       1.3576540       3.5570210       4.0000000       4.0000000   7.2716476e+18       29.250361
       564.59110       564.30829       564.83429       1430000.0    0.0091000000       1.1472790       3.3426710       6.0000000       8.0000000   8.1599970e+18       27.293149
       581.11040       580.98871       581.49408       570000.00    0.0021500000      0.49146300       2.6244490       8.0000000       6.0000000   8.7376278e+18       28.569019
       587.73550       587.59290       588.06744       2330000.0     0.014500000       1.6553690       3.7643110       10.000000       12.000000   1.2961510e+19       26.862230
       593.97650       593.75513       594.30841       1600000.0     0.016900000       1.2099580       3.2967440       2.0000000       4.0000000   6.4672131e+18       27.641468
       594.40240       594.30841       594.75140       2130000.0     0.017000000       1.2368430       3.3221270       4.0000000       6.0000000   9.4326352e+18       27.327315
       599.72340       599.60876       600.24200       2400000.0     0.012900000       1.6553690       3.7221540       10.000000       10.000000   1.0135183e+19       26.768980
       630.95790       630.79559       631.22614       1830000.0     0.016400000       1.3576540       3.3221270       4.0000000       6.0000000   1.0836950e+19       27.617907
       632.50830       632.32336       633.02972       340000.00    0.0041000000      0.75003200       2.7096830       2.0000000       4.0000000   4.9376394e+18       28.920424
       638.94470       638.78760       639.26312       11700000.     0.057000000       2.6226790       4.5626040       10.000000       8.0000000   5.1006139e+18       24.721352
       645.03600       644.83630       645.35620       2200000.0     0.017200000       1.5169170       3.4385070       8.0000000       10.000000   1.5278071e+19       27.266397
       648.53700       648.16266       649.12762       5800000.0     0.036600000       1.6553690       3.5666100       10.000000       10.000000   3.0883548e+19       27.000802
       661.19500       660.85706       661.67633       1880000.0    0.0082000000       1.3940320       3.2686810       6.0000000       4.0000000   1.0807444e+19       27.993690
       662.13000       662.04529       662.41449       303000.00    0.0029900000      0.75244900       2.6244490       4.0000000       6.0000000   5.0128184e+18       28.645282
       686.62300       686.46002       687.01227       2580000.0     0.013700000       1.5169170       3.3221270       8.0000000       6.0000000   1.4030029e+19       27.532672
       696.61300       696.25079       697.02600       1210000.0    0.0088000000       1.5169170       3.2962350       8.0000000       8.0000000   2.0052116e+19       28.359294
       740.78900       740.54022       741.36218       2030000.0     0.011100000       1.3940320       3.0672490       6.0000000       4.0000000   9.9491477e+18       27.834178
