n_lines = 44
Unit of Inte: [ph/(s m^2 sr)]
Assumed plasma length [m] = 0.00500000
Te [eV] = 0.56463656+/-0.044102647
Intercept = 32.612201+/-0.48043558
bestnorm: the value of the summed squared residuals for the returned parameter values.
bestnorm = 6.9010118

 Wavelength(nm) wavel_l(nm) wavel_u(nm) Aki(s^-1) fik Ei(eV) Ek(eV) gi gk Iki ln(Iki/gk*Aki)
       379.20150       379.10788       379.31793       900000.00    0.0019400000       0.0000000       3.2686810       4.0000000       4.0000000   1.7188734e+18       26.891756
       400.68350       400.61694       400.86395       760000.00    0.0024500000      0.24922100       3.3426710       6.0000000       8.0000000   1.3883376e+18       26.154123
       402.69440       402.59756       402.82101       3600000.0    0.0088000000      0.75244900       3.8304510       4.0000000       4.0000000   1.5660978e+18       25.412380
       404.08700       403.94019       404.33890       730000.00    0.0022000000      0.69692000       3.7643110       10.000000       12.000000   4.5152255e+18       26.968280
       406.13990       405.96280       406.41370       6500000.0     0.032200000      0.75003200       3.8019330       2.0000000       4.0000000   4.1390751e+18       25.793397
       406.46300       406.41370       406.58917       3830000.0    0.0095000000      0.75244900       3.8019330       4.0000000       4.0000000   1.6414517e+18       25.397443
       406.79080       406.58917       406.91528       840000.00    0.0028000000      0.24922100       3.2962350       6.0000000       8.0000000   2.4413088e+18       26.618467
       413.61980       413.44348       413.80081       1820000.0    0.0035000000      0.49146300       3.4881570       8.0000000       6.0000000   2.6617556e+18       26.219411
       414.78910       414.66992       414.95151       1790000.0    0.0036900000      0.69692000       3.6851760       10.000000       8.0000000   2.8104337e+18       26.002703
       438.60680       438.42923       438.78174       1030000.0    0.0045000000      0.75244900       3.5784330       4.0000000       6.0000000   2.1876665e+18       26.592538
       457.43060       457.29550       457.63538       1230000.0    0.0038400000       0.0000000       2.7096830       4.0000000       4.0000000   5.7687926e+18       27.790175
       461.95120       461.79108       462.13434       5300000.0     0.011200000       1.1472790       3.8304510       6.0000000       4.0000000   3.5078080e+18       25.832011
       466.91430       466.82343       467.17053       2850000.0    0.0062000000       1.1472790       3.8019330       6.0000000       4.0000000   2.1324135e+18       25.954662
       474.01630       473.93417       474.25735       5000000.0     0.016900000       1.2368430       3.8517350       4.0000000       4.0000000   2.3458711e+18       25.487946
       478.09350       478.00494       478.36063       2160000.0    0.0059000000       1.3254310       3.9180180       10.000000       8.0000000   2.5865206e+18       25.731785
       481.27490       481.18594       481.48434       1200000.0    0.0042000000       0.0000000       2.5754390       4.0000000       4.0000000   7.2076171e+18       28.037544
       482.54290       482.38068       482.73969       2630000.0    0.0092000000       1.3940320       3.9627110       6.0000000       6.0000000   2.2556727e+18       25.685726
       488.39500       488.30911       488.55142       1110000.0    0.0053000000       1.1472790       3.6851760       6.0000000       8.0000000   1.3541416e+18       25.750387
       492.60050       492.47580       492.81192       1530000.0    0.0056000000      0.75244900       3.2686810       4.0000000       4.0000000   2.9087349e+18       26.887177
       506.78700       506.60773       506.98517       2920000.0    0.0084000000       1.5169170       3.9627110       8.0000000       6.0000000   1.7152325e+18       25.307227
       513.64670       513.44525       513.85974       4500000.0     0.017800000      0.75003200       3.1631630       2.0000000       2.0000000   5.5217733e+18       27.142496
       514.16200       514.01923       514.30646       1200000.0    0.0023800000      0.75244900       3.1631630       4.0000000       2.0000000   1.4342197e+18       27.116173
       514.36870       514.30646       514.65778       1680000.0    0.0044000000       1.1472790       3.5570210       6.0000000       4.0000000   1.5481549e+18       26.162997
       514.76200       514.65778       514.94537       900000.00    0.0023800000       1.3940320       3.8019330       6.0000000       4.0000000   8.9409770e+17       26.238147
       540.25070       540.06348       540.43256       1350000.0    0.0029600000       0.0000000       2.2942930       4.0000000       2.0000000   5.9119864e+18       28.414751
       543.52670       543.42816       543.76581       1070000.0    0.0071000000       1.3576540       3.6381250       4.0000000       6.0000000   1.7563906e+18       26.334864
       562.06840       561.96466       562.27893       600000.00    0.0035500000       1.5169170       3.7221540       8.0000000       10.000000   1.1378640e+18       25.968414
       563.57100       563.39764       563.92285       360000.00    0.0017000000       1.3576540       3.5570210       4.0000000       4.0000000   2.4184479e+18       28.149504
       564.59110       564.44849       564.79919       1430000.0    0.0091000000       1.1472790       3.3426710       6.0000000       8.0000000   3.5794432e+18       26.469112
       581.11040       580.95258       581.42188       570000.00    0.0021500000      0.49146300       2.6244490       8.0000000       6.0000000   4.6968141e+18       27.948265
       587.73550       587.44696       588.03094       2330000.0     0.014500000       1.6553690       3.7643110       10.000000       12.000000   4.9285304e+18       25.895287
       593.97650       593.79199       594.23462       1600000.0     0.016900000       1.2099580       3.2967440       2.0000000       4.0000000   2.4673117e+18       26.677852
       594.40240       594.23462       594.71448       2130000.0     0.017000000       1.2368430       3.3221270       4.0000000       6.0000000   4.7634592e+18       26.644114
       599.72340       599.49713       599.98120       2400000.0     0.012900000       1.6553690       3.7221540       10.000000       10.000000   4.6015151e+18       25.979353
       630.95790       630.59998       631.18695       1830000.0     0.016400000       1.3576540       3.3221270       4.0000000       6.0000000   5.4577636e+18       26.931985
       632.50830       632.40186       632.71570       340000.00    0.0041000000      0.75003200       2.7096830       2.0000000       4.0000000   1.3907405e+18       27.653373
       638.94470       638.78760       639.18384       11700000.     0.057000000       2.6226790       4.5626040       10.000000       8.0000000   2.6079588e+18       24.050559
       645.03600       644.83630       645.47626       2200000.0     0.017200000       1.5169170       3.4385070       8.0000000       10.000000   6.9514492e+18       26.478929
       648.53700       648.32343       649.08740       5800000.0     0.036600000       1.6553690       3.5666100       10.000000       10.000000   1.3754148e+19       26.191919
       661.19500       661.06177       661.51239       1880000.0    0.0082000000       1.3940320       3.2686810       6.0000000       4.0000000   4.1364221e+18       27.033286
       662.13000       661.92230       662.41449       303000.00    0.0029900000      0.75244900       2.6244490       4.0000000       6.0000000   2.0635153e+18       27.757695
       686.62300       686.41754       687.05481       2580000.0     0.013700000       1.5169170       3.3221270       8.0000000       6.0000000   4.7966143e+18       26.459383
       696.61300       696.20776       696.89679       1210000.0    0.0088000000       1.5169170       3.2962350       8.0000000       8.0000000   7.8368330e+18       27.419794
       740.78900       740.63153       741.31647       2030000.0     0.011100000       1.3940320       3.0672490       6.0000000       4.0000000   3.7616837e+18       26.861558
