n_lines = 44
Unit of Inte: [ph/(s m^2 sr)]
Assumed plasma length [m] = 0.00500000
Te [eV] = 0.49736788+/-0.055506209
Intercept = 33.274729+/-0.77928194
bestnorm: the value of the summed squared residuals for the returned parameter values.
bestnorm = 18.156480

 Wavelength(nm) wavel_l(nm) wavel_u(nm) Aki(s^-1) fik Ei(eV) Ek(eV) gi gk Iki ln(Iki/gk*Aki)
       379.20150       379.10788       379.36462       900000.00    0.0019400000       0.0000000       3.2686810       4.0000000       4.0000000   1.8475496e+18       26.963947
       400.68350       400.61694       400.86395       760000.00    0.0024500000      0.24922100       3.3426710       6.0000000       8.0000000   1.2395051e+18       26.040729
       402.69440       402.52310       402.84586       3600000.0    0.0088000000      0.75244900       3.8304510       4.0000000       4.0000000   1.6885617e+18       25.487670
       404.08700       403.91528       404.33890       730000.00    0.0022000000      0.69692000       3.7643110       10.000000       12.000000   4.9011646e+18       27.050298
       406.13990       406.08801       406.33850       6500000.0     0.032200000      0.75003200       3.8019330       2.0000000       4.0000000   2.4847446e+18       25.283094
       406.46300       406.41370       406.58917       3830000.0    0.0095000000      0.75244900       3.8019330       4.0000000       4.0000000   1.3849699e+18       25.227540
       406.79080       406.73965       406.91528       840000.00    0.0028000000      0.24922100       3.2962350       6.0000000       8.0000000   1.2864344e+18       25.977807
       413.61980       413.46899       413.82635       1820000.0    0.0035000000      0.49146300       3.4881570       8.0000000       6.0000000   2.7162575e+18       26.239680
       414.78910       414.66992       414.95151       1790000.0    0.0036900000      0.69692000       3.6851760       10.000000       8.0000000   2.1059488e+18       25.714130
       438.60680       438.48343       438.78174       1030000.0    0.0045000000      0.75244900       3.5784330       4.0000000       6.0000000   2.0301737e+18       26.517824
       457.43060       457.29550       457.66370       1230000.0    0.0038400000       0.0000000       2.7096830       4.0000000       4.0000000   5.9228774e+18       27.816535
       461.95120       461.73389       462.13434       5300000.0     0.011200000       1.1472790       3.8304510       6.0000000       4.0000000   2.7327834e+18       25.582341
       466.91430       466.73666       467.05481       2850000.0    0.0062000000       1.1472790       3.8019330       6.0000000       4.0000000   1.9504243e+18       25.865455
       474.01630       473.93417       474.05167       5000000.0     0.016900000       1.2368430       3.8517350       4.0000000       4.0000000   1.1459470e+17       22.468935
       478.09350       477.97534       478.39029       2160000.0    0.0059000000       1.3254310       3.9180180       10.000000       8.0000000   2.4572134e+18       25.680499
       481.27490       481.12628       481.45450       1200000.0    0.0042000000       0.0000000       2.5754390       4.0000000       4.0000000   5.9875692e+18       27.852091
       482.54290       482.38068       482.76959       2630000.0    0.0092000000       1.3940320       3.9627110       6.0000000       6.0000000   2.1047519e+18       25.616475
       488.39500       488.30911       488.52112       1110000.0    0.0053000000       1.1472790       3.6851760       6.0000000       8.0000000   1.1520403e+18       25.588754
       492.60050       492.44525       492.84250       1530000.0    0.0056000000      0.75244900       3.2686810       4.0000000       4.0000000   2.7204630e+18       26.820261
       506.78700       506.67062       506.98517       2920000.0    0.0084000000       1.5169170       3.9627110       8.0000000       6.0000000   1.5963988e+18       25.235428
       513.64670       513.47711       513.89160       4500000.0     0.017800000      0.75003200       3.1631630       2.0000000       2.0000000   5.3743023e+18       27.115425
       514.16200       514.05115       514.30646       1200000.0    0.0023800000      0.75244900       3.1631630       4.0000000       2.0000000   1.5334429e+18       27.183068
       514.36870       514.30646       514.59387       1680000.0    0.0044000000       1.1472790       3.5570210       6.0000000       4.0000000   9.3826936e+17       25.662215
       514.76200       514.68970       514.88147       900000.00    0.0023800000       1.3940320       3.8019330       6.0000000       4.0000000   5.8883316e+17       25.820475
       540.25070       540.02991       540.43256       1350000.0    0.0029600000       0.0000000       2.2942930       4.0000000       2.0000000   5.7664982e+18       28.389834
       543.52670       543.42816       543.76581       1070000.0    0.0071000000       1.3576540       3.6381250       4.0000000       6.0000000   1.5285255e+18       26.195907
       562.06840       561.96466       562.27893       600000.00    0.0035500000       1.5169170       3.7221540       8.0000000       10.000000   1.0673581e+18       25.904448
       563.57100       563.46765       563.92285       360000.00    0.0017000000       1.3576540       3.5570210       4.0000000       4.0000000   2.2451618e+18       28.075156
       564.59110       564.48358       564.86938       1430000.0    0.0091000000       1.1472790       3.3426710       6.0000000       8.0000000   4.1043278e+18       26.605947
       581.11040       580.95258       581.45795       570000.00    0.0021500000      0.49146300       2.6244490       8.0000000       6.0000000   4.4351346e+18       27.890939
       587.73550       587.59290       588.06744       2330000.0     0.014500000       1.6553690       3.7643110       10.000000       12.000000   5.3880628e+18       25.984432
       593.97650       593.86572       594.27148       1600000.0     0.016900000       1.2099580       3.2967440       2.0000000       4.0000000   2.3889335e+18       26.645570
       594.40240       594.27148       594.71448       2130000.0     0.017000000       1.2368430       3.3221270       4.0000000       6.0000000   4.2899557e+18       26.539416
       599.72340       599.53436       600.13019       2400000.0     0.012900000       1.6553690       3.7221540       10.000000       10.000000   4.4991161e+18       25.956848
       630.95790       630.79559       631.18695       1830000.0     0.016400000       1.3576540       3.3221270       4.0000000       6.0000000   5.1582877e+18       26.875550
       632.50830       632.16650       632.71570       340000.00    0.0041000000      0.75003200       2.7096830       2.0000000       4.0000000   1.1817499e+18       27.490533
       638.94470       638.70837       639.18384       11700000.     0.057000000       2.6226790       4.5626040       10.000000       8.0000000   1.8971537e+18       23.732345
       645.03600       644.87628       645.31622       2200000.0     0.017200000       1.5169170       3.4385070       8.0000000       10.000000   6.2892820e+18       26.378826
       648.53700       648.28320       648.92645       5800000.0     0.036600000       1.6553690       3.5666100       10.000000       10.000000   1.2268170e+19       26.077586
       661.19500       661.06177       661.59436       1880000.0    0.0082000000       1.3940320       3.2686810       6.0000000       4.0000000   3.8935044e+18       26.972765
       662.13000       662.00427       662.37347       303000.00    0.0029900000      0.75244900       2.6244490       4.0000000       6.0000000   2.3839594e+18       27.902047
       686.62300       686.37512       687.01227       2580000.0     0.013700000       1.5169170       3.3221270       8.0000000       6.0000000   6.2933136e+18       26.730960
       696.61300       696.25079       696.93988       1210000.0    0.0088000000       1.5169170       3.2962350       8.0000000       8.0000000   6.7996101e+18       27.277824
       740.78900       740.54022       741.13379       2030000.0     0.011100000       1.3940320       3.0672490       6.0000000       4.0000000   3.9167175e+18       26.901945
