n_lines = 44
Unit of Inte: [ph/(s m^2 sr)]
Assumed plasma length [m] = 0.00500000
Te [eV] = 0.56252928+/-0.076140085
Intercept = 32.337734+/-0.83566384
bestnorm: the value of the summed squared residuals for the returned parameter values.
bestnorm = 20.878806

 Wavelength(nm) wavel_l(nm) wavel_u(nm) Aki(s^-1) fik Ei(eV) Ek(eV) gi gk Iki ln(Iki/gk*Aki)
       379.20150       379.22455       379.31793       900000.00    0.0019400000       0.0000000       3.2686810       4.0000000       4.0000000   3.0291334e+16       22.853194
       400.68350       400.56757       400.86395       760000.00    0.0024500000      0.24922100       3.3426710       6.0000000       8.0000000   1.7186085e+18       26.367531
       402.69440       402.57275       402.82101       3600000.0    0.0088000000      0.75244900       3.8304510       4.0000000       4.0000000   1.3120796e+18       25.235406
       404.08700       403.96509       404.21426       730000.00    0.0022000000      0.69692000       3.7643110       10.000000       12.000000   3.7524224e+18       26.783227
       406.13990       405.96280       406.28839       6500000.0     0.032200000      0.75003200       3.8019330       2.0000000       4.0000000   3.1471197e+18       25.519412
       406.46300       406.41370       406.58917       3830000.0    0.0095000000      0.75244900       3.8019330       4.0000000       4.0000000   1.4045310e+18       25.241565
       406.79080       406.73965       406.91528       840000.00    0.0028000000      0.24922100       3.2962350       6.0000000       8.0000000   1.4087161e+18       26.068612
       413.61980       413.54556       413.80081       1820000.0    0.0035000000      0.49146300       3.4881570       8.0000000       6.0000000   2.6841704e+18       26.227797
       414.78910       414.61874       414.95151       1790000.0    0.0036900000      0.69692000       3.6851760       10.000000       8.0000000   2.9508637e+18       26.051462
       438.60680       438.42923       438.83600       1030000.0    0.0045000000      0.75244900       3.5784330       4.0000000       6.0000000   2.4304904e+18       26.697796
       457.43060       457.29550       457.69202       1230000.0    0.0038400000       0.0000000       2.7096830       4.0000000       4.0000000   4.6734705e+18       27.579615
       461.95120       461.73389       462.16296       5300000.0     0.011200000       1.1472790       3.8304510       6.0000000       4.0000000   3.1979907e+18       25.739543
       466.91430       466.82343       467.17053       2850000.0    0.0062000000       1.1472790       3.8019330       6.0000000       4.0000000   1.9934519e+18       25.887276
       474.01630       473.93417       474.19858       5000000.0     0.016900000       1.2368430       3.8517350       4.0000000       4.0000000   1.5271460e+18       25.058689
       478.09350       477.97534       478.30133       2160000.0    0.0059000000       1.3254310       3.9180180       10.000000       8.0000000   1.6534596e+18       25.284341
       481.27490       481.12628       481.48434       1200000.0    0.0042000000       0.0000000       2.5754390       4.0000000       4.0000000   5.4910109e+18       27.765518
       482.54290       482.44049       482.73969       2630000.0    0.0092000000       1.3940320       3.9627110       6.0000000       6.0000000   1.9792251e+18       25.554983
       488.39500       488.30911       488.52112       1110000.0    0.0053000000       1.1472790       3.6851760       6.0000000       8.0000000   1.1924486e+18       25.623228
       492.60050       492.44525       492.93420       1530000.0    0.0056000000      0.75244900       3.2686810       4.0000000       4.0000000   3.0910867e+18       26.947982
       506.78700       506.63919       506.95370       2920000.0    0.0084000000       1.5169170       3.9627110       8.0000000       6.0000000   1.2502498e+18       24.991021
       513.64670       513.41333       513.85974       4500000.0     0.017800000      0.75003200       3.1631630       2.0000000       2.0000000   4.4182220e+18       26.919534
       514.16200       514.05115       514.30646       1200000.0    0.0023800000      0.75244900       3.1631630       4.0000000       2.0000000   9.7630046e+17       26.731567
       514.36870       514.30646       514.65778       1680000.0    0.0044000000       1.1472790       3.5570210       6.0000000       4.0000000   8.0047392e+17       25.503382
       514.76200       514.65778       514.88147       900000.00    0.0023800000       1.3940320       3.8019330       6.0000000       4.0000000   3.5340988e+17       25.309961
       540.25070       540.09698       540.46613       1350000.0    0.0029600000       0.0000000       2.2942930       4.0000000       2.0000000   4.5938639e+18       28.162491
       543.52670       543.42816       543.76581       1070000.0    0.0071000000       1.3576540       3.6381250       4.0000000       6.0000000   1.5204711e+18       26.190623
       562.06840       561.99957       562.27893       600000.00    0.0035500000       1.5169170       3.7221540       8.0000000       10.000000   8.5144813e+17       25.678445
       563.57100       563.50262       563.85278       360000.00    0.0017000000       1.3576540       3.5570210       4.0000000       4.0000000   1.6489335e+18       27.766507
       564.59110       564.48358       564.83429       1430000.0    0.0091000000       1.1472790       3.3426710       6.0000000       8.0000000   3.0178455e+18       26.298448
       581.11040       580.80829       581.49408       570000.00    0.0021500000      0.49146300       2.6244490       8.0000000       6.0000000   4.2278099e+18       27.843065
       587.73550       587.55640       588.03094       2330000.0     0.014500000       1.6553690       3.7643110       10.000000       12.000000   5.6244209e+18       26.027364
       593.97650       593.79199       594.23462       1600000.0     0.016900000       1.2099580       3.2967440       2.0000000       4.0000000   2.3519693e+18       26.629976
       594.40240       594.23462       594.78833       2130000.0     0.017000000       1.2368430       3.3221270       4.0000000       6.0000000   3.7682237e+18       26.409743
       599.72340       599.57159       600.09296       2400000.0     0.012900000       1.6553690       3.7221540       10.000000       10.000000   4.3117899e+18       25.914320
       630.95790       630.71735       631.18695       1830000.0     0.016400000       1.3576540       3.3221270       4.0000000       6.0000000   4.6945766e+18       26.781354
       632.50830       632.28418       632.79419       340000.00    0.0041000000      0.75003200       2.7096830       2.0000000       4.0000000   1.3585045e+18       27.629921
       638.94470       638.82721       639.18384       11700000.     0.057000000       2.6226790       4.5626040       10.000000       8.0000000   1.8273749e+18       23.694871
       645.03600       644.75635       645.31622       2200000.0     0.017200000       1.5169170       3.4385070       8.0000000       10.000000   5.4423379e+18       26.234187
       648.53700       648.20282       648.88623       5800000.0     0.036600000       1.6553690       3.5666100       10.000000       10.000000   1.1068931e+19       25.974720
       661.19500       661.02081       661.43042       1880000.0    0.0082000000       1.3940320       3.2686810       6.0000000       4.0000000   3.1213767e+18       26.751729
       662.13000       661.92230       662.37347       303000.00    0.0029900000      0.75244900       2.6244490       4.0000000       6.0000000   2.4649525e+18       27.935457
       686.62300       686.50250       686.96979       2580000.0     0.013700000       1.5169170       3.3221270       8.0000000       6.0000000   3.5645529e+18       26.162511
       696.61300       696.46606       696.89679       1210000.0    0.0088000000       1.5169170       3.2962350       8.0000000       8.0000000   3.1826193e+18       26.518664
       740.78900       740.67712       741.08807       2030000.0     0.011100000       1.3940320       3.0672490       6.0000000       4.0000000   3.7774350e+18       26.865736
