n_lines = 44
Unit of Inte: [ph/(s m^2 sr)]
Assumed plasma length [m] = 0.00500000
Te [eV] = 0.54100657+/-0.043566969
Intercept = 33.370405+/-0.51696454
bestnorm: the value of the summed squared residuals for the returned parameter values.
bestnorm = 7.9903158

 Wavelength(nm) wavel_l(nm) wavel_u(nm) Aki(s^-1) fik Ei(eV) Ek(eV) gi gk Iki ln(Iki/gk*Aki)
       379.20150       379.10788       379.34128       900000.00    0.0019400000       0.0000000       3.2686810       4.0000000       4.0000000   2.3224564e+18       27.192713
       400.68350       400.56757       400.86395       760000.00    0.0024500000      0.24922100       3.3426710       6.0000000       8.0000000   2.8085009e+18       26.858667
       402.69440       402.54791       402.82101       3600000.0    0.0088000000      0.75244900       3.8304510       4.0000000       4.0000000   2.6489825e+18       25.937969
       404.08700       403.91528       404.33890       730000.00    0.0022000000      0.69692000       3.7643110       10.000000       12.000000   7.3667563e+18       27.457803
       406.13990       405.98785       406.28839       6500000.0     0.032200000      0.75003200       3.8019330       2.0000000       4.0000000   5.0037513e+18       25.983112
       406.46300       406.41370       406.58917       3830000.0    0.0095000000      0.75244900       3.8019330       4.0000000       4.0000000   2.5629729e+18       25.843030
       406.79080       406.71457       406.91528       840000.00    0.0028000000      0.24922100       3.2962350       6.0000000       8.0000000   2.7049292e+18       26.721009
       413.61980       413.52002       413.87741       1820000.0    0.0035000000      0.49146300       3.4881570       8.0000000       6.0000000   4.4318385e+18       26.729240
       414.78910       414.69553       414.95151       1790000.0    0.0036900000      0.69692000       3.6851760       10.000000       8.0000000   4.4159683e+18       26.454591
       438.60680       438.48343       438.83600       1030000.0    0.0045000000      0.75244900       3.5784330       4.0000000       6.0000000   3.2828255e+18       26.998407
       457.43060       457.29550       457.66370       1230000.0    0.0038400000       0.0000000       2.7096830       4.0000000       4.0000000   8.9902919e+18       28.233858
       461.95120       461.79108       462.13434       5300000.0     0.011200000       1.1472790       3.8304510       6.0000000       4.0000000   5.7336411e+18       26.323371
       466.91430       466.82343       467.19949       2850000.0    0.0062000000       1.1472790       3.8019330       6.0000000       4.0000000   3.6023746e+18       26.479001
       474.01630       473.90482       474.25735       5000000.0     0.016900000       1.2368430       3.8517350       4.0000000       4.0000000   2.8999243e+18       25.699973
       478.09350       477.97534       478.36063       2160000.0    0.0059000000       1.3254310       3.9180180       10.000000       8.0000000   3.9737297e+18       26.161176
       481.27490       481.03680       481.48434       1200000.0    0.0042000000       0.0000000       2.5754390       4.0000000       4.0000000   1.1635296e+19       28.516448
       482.54290       482.35077       482.73969       2630000.0    0.0092000000       1.3940320       3.9627110       6.0000000       6.0000000   3.6488661e+18       26.166694
       488.39500       488.24854       488.52112       1110000.0    0.0053000000       1.1472790       3.6851760       6.0000000       8.0000000   2.4330546e+18       26.336367
       492.60050       492.47580       492.90366       1530000.0    0.0056000000      0.75244900       3.2686810       4.0000000       4.0000000   4.1259881e+18       27.236765
       506.78700       506.63919       506.98517       2920000.0    0.0084000000       1.5169170       3.9627110       8.0000000       6.0000000   3.1238432e+18       25.906742
       513.64670       513.38147       513.92352       4500000.0     0.017800000      0.75003200       3.1631630       2.0000000       2.0000000   7.9348486e+18       27.505061
       514.16200       514.01923       514.30646       1200000.0    0.0023800000      0.75244900       3.1631630       4.0000000       2.0000000   2.4899207e+18       27.667803
       514.36870       514.30646       514.53003       1680000.0    0.0044000000       1.1472790       3.5570210       6.0000000       4.0000000   1.7484388e+18       26.284656
       514.76200       514.68970       515.04132       900000.00    0.0023800000       1.3940320       3.8019330       6.0000000       4.0000000   1.6374219e+18       26.843210
       540.25070       539.99640       540.43256       1350000.0    0.0029600000       0.0000000       2.2942930       4.0000000       2.0000000   9.2579116e+18       28.863248
       543.52670       543.42816       543.79956       1070000.0    0.0071000000       1.3576540       3.6381250       4.0000000       6.0000000   2.4586820e+18       26.671228
       562.06840       561.92975       562.27893       600000.00    0.0035500000       1.5169170       3.7221540       8.0000000       10.000000   1.9161440e+18       26.489576
       563.57100       563.36267       563.92285       360000.00    0.0017000000       1.3576540       3.5570210       4.0000000       4.0000000   4.0475775e+18       28.664497
       564.59110       564.44849       564.83429       1430000.0    0.0091000000       1.1472790       3.3426710       6.0000000       8.0000000   6.4622881e+18       27.059889
       581.11040       580.84436       581.42188       570000.00    0.0021500000      0.49146300       2.6244490       8.0000000       6.0000000   7.7973864e+18       28.455169
       587.73550       587.55640       588.03094       2330000.0     0.014500000       1.6553690       3.7643110       10.000000       12.000000   9.6170059e+18       26.563779
       593.97650       593.82886       594.27148       1600000.0     0.016900000       1.2099580       3.2967440       2.0000000       4.0000000   4.9636712e+18       27.376869
       594.40240       594.27148       594.67755       2130000.0     0.017000000       1.2368430       3.3221270       4.0000000       6.0000000   8.1911502e+18       27.186194
       599.72340       599.45990       600.16748       2400000.0     0.012900000       1.6553690       3.7221540       10.000000       10.000000   9.1733072e+18       26.669265
       630.95790       630.79559       631.14783       1830000.0     0.016400000       1.3576540       3.3221270       4.0000000       6.0000000   7.8822721e+18       27.299562
       632.50830       632.24493       633.02972       340000.00    0.0041000000      0.75003200       2.7096830       2.0000000       4.0000000   4.2163297e+18       28.762501
       638.94470       638.62921       639.22351       11700000.     0.057000000       2.6226790       4.5626040       10.000000       8.0000000   3.8703981e+18       24.445348
       645.03600       644.79633       645.31622       2200000.0     0.017200000       1.5169170       3.4385070       8.0000000       10.000000   1.1000505e+19       26.937920
       648.53700       648.24304       649.00690       5800000.0     0.036600000       1.6553690       3.5666100       10.000000       10.000000   2.1948196e+19       26.659263
       661.19500       661.06177       661.59436       1880000.0    0.0082000000       1.3940320       3.2686810       6.0000000       4.0000000   4.6476118e+18       27.149808
       662.13000       661.92230       662.33246       303000.00    0.0029900000      0.75244900       2.6244490       4.0000000       6.0000000   3.5965933e+18       28.313271
       686.62300       686.29016       686.92731       2580000.0     0.013700000       1.5169170       3.3221270       8.0000000       6.0000000   1.0653377e+19       27.257349
       696.61300       696.03564       696.85370       1210000.0    0.0088000000       1.5169170       3.2962350       8.0000000       8.0000000   1.5845851e+19       28.123867
       740.78900       740.44891       741.22510       2030000.0     0.011100000       1.3940320       3.0672490       6.0000000       4.0000000   8.2315458e+18       27.644665
