n_lines = 44
Unit of Inte: [ph/(s m^2 sr)]
Assumed plasma length [m] = 0.00500000
Te [eV] = 0.56594936+/-0.057270197
Intercept = 32.548934+/-0.62098636
bestnorm: the value of the summed squared residuals for the returned parameter values.
bestnorm = 11.529396

 Wavelength(nm) wavel_l(nm) wavel_u(nm) Aki(s^-1) fik Ei(eV) Ek(eV) gi gk Iki ln(Iki/gk*Aki)
       379.20150       379.10788       379.22455       900000.00    0.0019400000       0.0000000       3.2686810       4.0000000       4.0000000   1.9768260e+17       24.728995
       400.68350       400.54288       400.81454       760000.00    0.0024500000      0.24922100       3.3426710       6.0000000       8.0000000   1.9538443e+18       26.495815
       402.69440       402.57275       402.82101       3600000.0    0.0088000000      0.75244900       3.8304510       4.0000000       4.0000000   1.5528634e+18       25.403893
       404.08700       403.94019       404.33890       730000.00    0.0022000000      0.69692000       3.7643110       10.000000       12.000000   4.5920844e+18       26.985159
       406.13990       405.98785       406.33850       6500000.0     0.032200000      0.75003200       3.8019330       2.0000000       4.0000000   3.7941924e+18       25.706396
       406.46300       406.33850       406.58917       3830000.0    0.0095000000      0.75244900       3.8019330       4.0000000       4.0000000   1.7996772e+18       25.489469
       406.79080       406.71457       406.91528       840000.00    0.0028000000      0.24922100       3.2962350       6.0000000       8.0000000   1.7500099e+18       26.285554
       413.61980       413.49451       413.82635       1820000.0    0.0035000000      0.49146300       3.4881570       8.0000000       6.0000000   3.1342907e+18       26.382828
       414.78910       414.66992       415.00275       1790000.0    0.0036900000      0.69692000       3.6851760       10.000000       8.0000000   3.4156874e+18       26.197743
       438.60680       438.48343       438.86313       1030000.0    0.0045000000      0.75244900       3.5784330       4.0000000       6.0000000   2.5969685e+18       26.764048
       457.43060       457.29550       457.66370       1230000.0    0.0038400000       0.0000000       2.7096830       4.0000000       4.0000000   6.1089903e+18       27.847474
       461.95120       461.73389       462.16296       5300000.0     0.011200000       1.1472790       3.8304510       6.0000000       4.0000000   3.3176484e+18       25.776276
       466.91430       466.79449       467.08374       2850000.0    0.0062000000       1.1472790       3.8019330       6.0000000       4.0000000   2.2749664e+18       26.019373
       474.01630       473.84607       474.19858       5000000.0     0.016900000       1.2368430       3.8517350       4.0000000       4.0000000   1.9290510e+18       25.292317
       478.09350       478.00494       478.30133       2160000.0    0.0059000000       1.3254310       3.9180180       10.000000       8.0000000   2.2479582e+18       25.591494
       481.27490       481.18594       481.42465       1200000.0    0.0042000000       0.0000000       2.5754390       4.0000000       4.0000000   5.9781886e+18       27.850523
       482.54290       482.41058       482.73969       2630000.0    0.0092000000       1.3940320       3.9627110       6.0000000       6.0000000   2.0986423e+18       25.613568
       488.39500       488.30911       488.55142       1110000.0    0.0053000000       1.1472790       3.6851760       6.0000000       8.0000000   1.3293692e+18       25.731924
       492.60050       492.47580       492.81192       1530000.0    0.0056000000      0.75244900       3.2686810       4.0000000       4.0000000   3.1281920e+18       26.959914
       506.78700       506.70206       506.98517       2920000.0    0.0084000000       1.5169170       3.9627110       8.0000000       6.0000000   2.0271691e+18       25.474318
       513.64670       513.38147       513.89160       4500000.0     0.017800000      0.75003200       3.1631630       2.0000000       2.0000000   5.0104175e+18       27.045316
       514.16200       514.05115       514.30646       1200000.0    0.0023800000      0.75244900       3.1631630       4.0000000       2.0000000   1.3815040e+18       27.078725
       514.36870       514.30646       514.53003       1680000.0    0.0044000000       1.1472790       3.5570210       6.0000000       4.0000000   1.0576800e+18       25.782011
       514.76200       514.65778       514.88147       900000.00    0.0023800000       1.3940320       3.8019330       6.0000000       4.0000000   5.7842161e+17       25.802635
       540.25070       540.02991       540.43256       1350000.0    0.0029600000       0.0000000       2.2942930       4.0000000       2.0000000   6.2887828e+18       28.476537
       543.52670       543.39441       543.79956       1070000.0    0.0071000000       1.3576540       3.6381250       4.0000000       6.0000000   1.4900556e+18       26.170416
       562.06840       561.96466       562.38367       600000.00    0.0035500000       1.5169170       3.7221540       8.0000000       10.000000   1.1642724e+18       25.991358
       563.57100       563.46765       563.88782       360000.00    0.0017000000       1.3576540       3.5570210       4.0000000       4.0000000   2.7113392e+18       28.263821
       564.59110       564.34332       564.86938       1430000.0    0.0091000000       1.1472790       3.3426710       6.0000000       8.0000000   3.8655286e+18       26.546004
       581.11040       580.88043       581.38574       570000.00    0.0021500000      0.49146300       2.6244490       8.0000000       6.0000000   4.8426038e+18       27.978833
       587.73550       587.55640       587.99445       2330000.0     0.014500000       1.6553690       3.7643110       10.000000       12.000000   6.0713113e+18       26.103821
       593.97650       593.82886       594.23462       1600000.0     0.016900000       1.2099580       3.2967440       2.0000000       4.0000000   3.0234380e+18       26.881118
       594.40240       594.23462       594.75140       2130000.0     0.017000000       1.2368430       3.3221270       4.0000000       6.0000000   4.3589217e+18       26.555364
       599.72340       599.38544       600.16748       2400000.0     0.012900000       1.6553690       3.7221540       10.000000       10.000000   5.2370315e+18       26.108722
       630.95790       630.75647       631.22614       1830000.0     0.016400000       1.3576540       3.3221270       4.0000000       6.0000000   4.8745589e+18       26.818975
       632.50830       632.32336       632.79419       340000.00    0.0041000000      0.75003200       2.7096830       2.0000000       4.0000000   1.6193988e+18       27.805591
       638.94470       638.66882       639.18384       11700000.     0.057000000       2.6226790       4.5626040       10.000000       8.0000000   2.7585679e+18       24.106702
       645.03600       644.75635       645.31622       2200000.0     0.017200000       1.5169170       3.4385070       8.0000000       10.000000   7.2789623e+18       26.524967
       648.53700       648.20282       648.92645       5800000.0     0.036600000       1.6553690       3.5666100       10.000000       10.000000   1.2022943e+19       26.057395
       661.19500       661.06177       661.43042       1880000.0    0.0082000000       1.3940320       3.2686810       6.0000000       4.0000000   2.7504133e+18       26.625206
       662.13000       661.96326       662.41449       303000.00    0.0029900000      0.75244900       2.6244490       4.0000000       6.0000000   2.5843887e+18       27.982773
       686.62300       686.29016       686.96979       2580000.0     0.013700000       1.5169170       3.3221270       8.0000000       6.0000000   5.6764226e+18       26.627793
       696.61300       696.25079       696.89679       1210000.0    0.0088000000       1.5169170       3.2962350       8.0000000       8.0000000   7.0523335e+18       27.314318
       740.78900       740.49457       741.13379       2030000.0     0.011100000       1.3940320       3.0672490       6.0000000       4.0000000   4.7195249e+18       27.088399
