n_lines = 44
Unit of Inte: [ph/(s m^2 sr)]
Assumed plasma length [m] = 0.00500000
Te [eV] = 0.51842513+/-0.039394070
Intercept = 33.454453+/-0.50905800
bestnorm: the value of the summed squared residuals for the returned parameter values.
bestnorm = 7.7477744

 Wavelength(nm) wavel_l(nm) wavel_u(nm) Aki(s^-1) fik Ei(eV) Ek(eV) gi gk Iki ln(Iki/gk*Aki)
       379.20150       379.13123       379.36462       900000.00    0.0019400000       0.0000000       3.2686810       4.0000000       4.0000000   2.6687944e+18       27.331714
       400.68350       400.56757       400.88867       760000.00    0.0024500000      0.24922100       3.3426710       6.0000000       8.0000000   2.6584641e+18       26.803765
       402.69440       402.57275       402.87070       3600000.0    0.0088000000      0.75244900       3.8304510       4.0000000       4.0000000   2.0900448e+18       25.700978
       404.08700       403.96509       404.36383       730000.00    0.0022000000      0.69692000       3.7643110       10.000000       12.000000   5.3928254e+18       27.145895
       406.13990       406.01288       406.31345       6500000.0     0.032200000      0.75003200       3.8019330       2.0000000       4.0000000   3.8202512e+18       25.713241
       406.46300       406.38864       406.61426       3830000.0    0.0095000000      0.75244900       3.8019330       4.0000000       4.0000000   2.3211944e+18       25.743944
       406.79080       406.71457       406.94040       840000.00    0.0028000000      0.24922100       3.2962350       6.0000000       8.0000000   2.6481086e+18       26.699779
       413.61980       413.52002       413.85190       1820000.0    0.0035000000      0.49146300       3.4881570       8.0000000       6.0000000   3.6832321e+18       26.544216
       414.78910       414.66992       414.97711       1790000.0    0.0036900000      0.69692000       3.6851760       10.000000       8.0000000   3.9022914e+18       26.330928
       438.60680       438.51056       438.86313       1030000.0    0.0045000000      0.75244900       3.5784330       4.0000000       6.0000000   3.4266347e+18       27.041281
       457.43060       457.29550       457.72037       1230000.0    0.0038400000       0.0000000       2.7096830       4.0000000       4.0000000   8.1373425e+18       28.134176
       461.95120       461.79108       462.19159       5300000.0     0.011200000       1.1472790       3.8304510       6.0000000       4.0000000   4.1913331e+18       26.010039
       466.91430       466.79449       467.11267       2850000.0    0.0062000000       1.1472790       3.8019330       6.0000000       4.0000000   2.5934548e+18       26.150399
       474.01630       473.93417       474.31613       5000000.0     0.016900000       1.2368430       3.8517350       4.0000000       4.0000000   2.7342905e+18       25.641161
       478.09350       478.03458       478.36063       2160000.0    0.0059000000       1.3254310       3.9180180       10.000000       8.0000000   3.3265453e+18       25.983406
       481.27490       481.18594       481.51419       1200000.0    0.0042000000       0.0000000       2.5754390       4.0000000       4.0000000   8.7725579e+18       28.234034
       482.54290       482.41058       482.76959       2630000.0    0.0092000000       1.3940320       3.9627110       6.0000000       6.0000000   2.7235343e+18       25.874208
       488.39500       488.33939       488.55142       1110000.0    0.0053000000       1.1472790       3.6851760       6.0000000       8.0000000   2.1848554e+18       26.228769
       492.60050       492.47580       492.81192       1530000.0    0.0056000000      0.75244900       3.2686810       4.0000000       4.0000000   3.9631623e+18       27.196501
       506.78700       506.63919       506.98517       2920000.0    0.0084000000       1.5169170       3.9627110       8.0000000       6.0000000   2.3755679e+18       25.632915
       513.64670       513.44525       513.92352       4500000.0     0.017800000      0.75003200       3.1631630       2.0000000       2.0000000   8.1373534e+18       27.530262
       514.16200       514.01923       514.33838       1200000.0    0.0023800000      0.75244900       3.1631630       4.0000000       2.0000000   2.0098815e+18       27.453628
       514.36870       514.33838       514.53003       1680000.0    0.0044000000       1.1472790       3.5570210       6.0000000       4.0000000   1.6575856e+18       26.231295
       514.76200       514.68970       514.88147       900000.00    0.0023800000       1.3940320       3.8019330       6.0000000       4.0000000   6.0715617e+17       25.851118
       540.25070       540.06348       540.49969       1350000.0    0.0029600000       0.0000000       2.2942930       4.0000000       2.0000000   9.2955437e+18       28.867304
       543.52670       543.42816       543.79956       1070000.0    0.0071000000       1.3576540       3.6381250       4.0000000       6.0000000   2.2193305e+18       26.568809
       562.06840       561.92975       562.41864       600000.00    0.0035500000       1.5169170       3.7221540       8.0000000       10.000000   1.7067463e+18       26.373850
       563.57100       563.29266       563.95789       360000.00    0.0017000000       1.3576540       3.5570210       4.0000000       4.0000000   3.7178672e+18       28.579528
       564.59110       564.37836       564.83429       1430000.0    0.0091000000       1.1472790       3.3426710       6.0000000       8.0000000   4.9594344e+18       26.795197
       581.11040       580.95258       581.45795       570000.00    0.0021500000      0.49146300       2.6244490       8.0000000       6.0000000   6.2556695e+18       28.234869
       587.73550       587.51990       588.10400       2330000.0     0.014500000       1.6553690       3.7643110       10.000000       12.000000   8.9690212e+18       26.494023
       593.97650       593.79199       594.27148       1600000.0     0.016900000       1.2099580       3.2967440       2.0000000       4.0000000   4.2242970e+18       27.215576
       594.40240       594.27148       594.71448       2130000.0     0.017000000       1.2368430       3.3221270       4.0000000       6.0000000   6.5937972e+18       26.969269
       599.72340       599.53436       600.20471       2400000.0     0.012900000       1.6553690       3.7221540       10.000000       10.000000   6.7009561e+18       26.355218
       630.95790       630.79559       631.26526       1830000.0     0.016400000       1.3576540       3.3221270       4.0000000       6.0000000   7.0760450e+18       27.191661
       632.50830       632.28418       632.79419       340000.00    0.0041000000      0.75003200       2.7096830       2.0000000       4.0000000   2.0790805e+18       28.055462
       638.94470       638.78760       639.18384       11700000.     0.057000000       2.6226790       4.5626040       10.000000       8.0000000   2.3527509e+18       23.947576
       645.03600       644.87628       645.55627       2200000.0     0.017200000       1.5169170       3.4385070       8.0000000       10.000000   9.2340000e+18       26.762871
       648.53700       648.16266       649.04712       5800000.0     0.036600000       1.6553690       3.5666100       10.000000       10.000000   1.9035620e+19       26.516890
       661.19500       661.02081       661.51239       1880000.0    0.0082000000       1.3940320       3.2686810       6.0000000       4.0000000   4.4383116e+18       27.103729
       662.13000       662.00427       662.45551       303000.00    0.0029900000      0.75244900       2.6244490       4.0000000       6.0000000   3.3105238e+18       28.230391
       686.62300       686.41754       686.96979       2580000.0     0.013700000       1.5169170       3.3221270       8.0000000       6.0000000   8.6245497e+18       27.046085
       696.61300       696.25079       696.93988       1210000.0    0.0088000000       1.5169170       3.2962350       8.0000000       8.0000000   1.1763389e+19       27.825951
       740.78900       740.44891       741.13379       2030000.0     0.011100000       1.3940320       3.0672490       6.0000000       4.0000000   5.7373401e+18       27.283687
