n_lines = 44
Unit of Inte: [ph/(s m^2 sr)]
Assumed plasma length [m] = 0.00500000
Te [eV] = 0.58364599+/-0.052244473
Intercept = 35.296322+/-0.53265991
bestnorm: the value of the summed squared residuals for the returned parameter values.
bestnorm = 8.4828630

 Wavelength(nm) wavel_l(nm) wavel_u(nm) Aki(s^-1) fik Ei(eV) Ek(eV) gi gk Iki ln(Iki/gk*Aki)
       379.20150       379.13123       379.41132       900000.00    0.0019400000       0.0000000       3.2686810       4.0000000       4.0000000   2.1750845e+19       29.429740
       400.68350       400.56757       400.91339       760000.00    0.0024500000      0.24922100       3.3426710       6.0000000       8.0000000   3.5332335e+19       29.390815
       402.69440       402.57275       402.87070       3600000.0    0.0088000000      0.75244900       3.8304510       4.0000000       4.0000000   3.1350183e+19       28.409013
       404.08700       403.96509       404.36383       730000.00    0.0022000000      0.69692000       3.7643110       10.000000       12.000000   7.3976244e+19       29.764569
       406.13990       406.01288       406.31345       6500000.0     0.032200000      0.75003200       3.8019330       2.0000000       4.0000000   6.3143817e+19       28.518340
       406.46300       406.41370       406.61426       3830000.0    0.0095000000      0.75244900       3.8019330       4.0000000       4.0000000   3.4116470e+19       28.431642
       406.79080       406.71457       406.94040       840000.00    0.0028000000      0.24922100       3.2962350       6.0000000       8.0000000   3.1533955e+19       29.176998
       413.61980       413.52002       413.87741       1820000.0    0.0035000000      0.49146300       3.4881570       8.0000000       6.0000000   4.6761253e+19       29.085480
       414.78910       414.56760       414.97711       1790000.0    0.0036900000      0.69692000       3.6851760       10.000000       8.0000000   5.0772031e+19       28.896710
       438.60680       438.48343       438.86313       1030000.0    0.0045000000      0.75244900       3.5784330       4.0000000       6.0000000   4.0218760e+19       29.504036
       457.43060       457.29550       457.69202       1230000.0    0.0038400000       0.0000000       2.7096830       4.0000000       4.0000000   8.0272974e+19       30.423146
       461.95120       461.76248       462.19159       5300000.0     0.011200000       1.1472790       3.8304510       6.0000000       4.0000000   6.6285441e+19       28.770990
       466.91430       466.73666       467.19949       2850000.0    0.0062000000       1.1472790       3.8019330       6.0000000       4.0000000   4.3390129e+19       28.967640
       474.01630       473.96353       474.43372       5000000.0     0.016900000       1.2368430       3.8517350       4.0000000       4.0000000   2.4312959e+19       27.826298
       478.09350       478.00494       478.36063       2160000.0    0.0059000000       1.3254310       3.9180180       10.000000       8.0000000   4.3646461e+19       28.557594
       481.27490       481.09647       481.48434       1200000.0    0.0042000000       0.0000000       2.5754390       4.0000000       4.0000000   8.2657738e+19       30.477114
       482.54290       482.38068       482.76959       2630000.0    0.0092000000       1.3940320       3.9627110       6.0000000       6.0000000   4.2643032e+19       28.625142
       488.39500       488.33939       488.58173       1110000.0    0.0053000000       1.1472790       3.6851760       6.0000000       8.0000000   3.2989234e+19       28.943401
       492.60050       492.47580       492.96478       1530000.0    0.0056000000      0.75244900       3.2686810       4.0000000       4.0000000   5.3614808e+19       29.801284
       506.78700       506.67062       506.98517       2920000.0    0.0084000000       1.5169170       3.9627110       8.0000000       6.0000000   3.5600649e+19       28.340042
       513.64670       513.44525       513.92352       4500000.0     0.017800000      0.75003200       3.1631630       2.0000000       2.0000000   8.9719623e+19       29.930486
       514.16200       514.08307       514.33838       1200000.0    0.0023800000      0.75244900       3.1631630       4.0000000       2.0000000   2.5091416e+19       29.978078
       514.36870       514.33838       514.68970       1680000.0    0.0044000000       1.1472790       3.5570210       6.0000000       4.0000000   2.2023982e+19       28.818065
       514.76200       514.68970       515.04132       900000.00    0.0023800000       1.3940320       3.8019330       6.0000000       4.0000000   1.9794701e+19       29.335502
       540.25070       540.09698       540.46613       1350000.0    0.0029600000       0.0000000       2.2942930       4.0000000       2.0000000   8.7582055e+19       31.110345
       543.52670       543.46191       543.79956       1070000.0    0.0071000000       1.3576540       3.6381250       4.0000000       6.0000000   2.9819981e+19       29.166782
       562.06840       561.96466       562.41864       600000.00    0.0035500000       1.5169170       3.7221540       8.0000000       10.000000   2.0757106e+19       28.872150
       563.57100       563.46765       563.95789       360000.00    0.0017000000       1.3576540       3.5570210       4.0000000       4.0000000   2.8012761e+19       30.599038
       564.59110       564.48358       564.83429       1430000.0    0.0091000000       1.1472790       3.3426710       6.0000000       8.0000000   6.4857142e+19       29.366092
       581.11040       580.95258       581.49408       570000.00    0.0021500000      0.49146300       2.6244490       8.0000000       6.0000000   7.0981018e+19       30.663793
       587.73550       587.48346       588.03094       2330000.0     0.014500000       1.6553690       3.7643110       10.000000       12.000000   1.0138990e+20       28.919220
       593.97650       593.79199       594.27148       1600000.0     0.016900000       1.2099580       3.2967440       2.0000000       4.0000000   4.9962379e+19       29.685993
       594.40240       594.27148       595.00995       2130000.0     0.017000000       1.2368430       3.3221270       4.0000000       6.0000000   8.3619648e+19       29.509418
       599.72340       599.49713       600.24200       2400000.0     0.012900000       1.6553690       3.7221540       10.000000       10.000000   9.1328877e+19       28.967434
       630.95790       630.48260       631.22614       1830000.0     0.016400000       1.3576540       3.3221270       4.0000000       6.0000000   8.9986448e+19       29.734605
       632.50830       632.28418       633.02972       340000.00    0.0041000000      0.75003200       2.7096830       2.0000000       4.0000000   3.4991965e+19       30.878655
       638.94470       638.66882       639.22351       11700000.     0.057000000       2.6226790       4.5626040       10.000000       8.0000000   4.5019671e+19       26.899090
       645.03600       644.83630       645.39624       2200000.0     0.017200000       1.5169170       3.4385070       8.0000000       10.000000   1.0998662e+20       29.240337
       648.53700       648.20282       648.92645       5800000.0     0.036600000       1.6553690       3.5666100       10.000000       10.000000   2.2401432e+20       28.982288
       661.19500       660.81610       661.47137       1880000.0    0.0082000000       1.3940320       3.2686810       6.0000000       4.0000000   6.3340814e+19       29.761985
       662.13000       662.00427       662.45551       303000.00    0.0029900000      0.75244900       2.6244490       4.0000000       6.0000000   4.1174578e+19       30.751105
       686.62300       686.37512       686.96979       2580000.0     0.013700000       1.5169170       3.3221270       8.0000000       6.0000000   1.1236515e+20       29.613226
       696.61300       696.03564       697.11224       1210000.0    0.0088000000       1.5169170       3.2962350       8.0000000       8.0000000   3.7712998e+20       31.293549
       740.78900       740.31207       741.13379       2030000.0     0.011100000       1.3940320       3.0672490       6.0000000       4.0000000   8.0280509e+19       29.922218
