n_lines = 44
Unit of Inte: [ph/(s m^2 sr)]
Assumed plasma length [m] = 0.00500000
Te [eV] = 0.58404447+/-0.050994874
Intercept = 34.842998+/-0.51921033
bestnorm: the value of the summed squared residuals for the returned parameter values.
bestnorm = 8.0598895

 Wavelength(nm) wavel_l(nm) wavel_u(nm) Aki(s^-1) fik Ei(eV) Ek(eV) gi gk Iki ln(Iki/gk*Aki)
       379.20150       379.13123       379.36462       900000.00    0.0019400000       0.0000000       3.2686810       4.0000000       4.0000000   1.7324323e+19       29.202199
       400.68350       400.56757       400.91339       760000.00    0.0024500000      0.24922100       3.3426710       6.0000000       8.0000000   2.1111878e+19       28.875852
       402.69440       402.49829       402.87070       3600000.0    0.0088000000      0.75244900       3.8304510       4.0000000       4.0000000   2.0432785e+19       27.980934
       404.08700       403.96509       404.38876       730000.00    0.0022000000      0.69692000       3.7643110       10.000000       12.000000   4.6491469e+19       29.300094
       406.13990       405.98785       406.31345       6500000.0     0.032200000      0.75003200       3.8019330       2.0000000       4.0000000   4.0684784e+19       28.078779
       406.46300       406.41370       406.61426       3830000.0    0.0095000000      0.75244900       3.8019330       4.0000000       4.0000000   2.1859853e+19       27.986514
       406.79080       406.71457       406.94040       840000.00    0.0028000000      0.24922100       3.2962350       6.0000000       8.0000000   2.0247191e+19       28.733949
       413.61980       413.57108       413.87741       1820000.0    0.0035000000      0.49146300       3.4881570       8.0000000       6.0000000   2.9272765e+19       28.617083
       414.78910       414.59317       414.97711       1790000.0    0.0036900000      0.69692000       3.6851760       10.000000       8.0000000   3.2748024e+19       28.458207
       438.60680       438.51056       438.86313       1030000.0    0.0045000000      0.75244900       3.5784330       4.0000000       6.0000000   2.4914650e+19       29.025159
       457.43060       457.32382       457.66370       1230000.0    0.0038400000       0.0000000       2.7096830       4.0000000       4.0000000   5.7967758e+19       30.097600
       461.95120       461.76248       462.16296       5300000.0     0.011200000       1.1472790       3.8304510       6.0000000       4.0000000   4.0968216e+19       28.289816
       466.91430       466.73666       467.19949       2850000.0    0.0062000000       1.1472790       3.8019330       6.0000000       4.0000000   2.8749904e+19       28.556042
       474.01630       473.96353       474.34552       5000000.0     0.016900000       1.2368430       3.8517350       4.0000000       4.0000000   1.6560320e+19       27.442298
       478.09350       478.00494       478.39029       2160000.0    0.0059000000       1.3254310       3.9180180       10.000000       8.0000000   2.6974603e+19       28.076367
       481.27490       481.09647       481.48434       1200000.0    0.0042000000       0.0000000       2.5754390       4.0000000       4.0000000   6.1303329e+19       30.178239
       482.54290       482.41058       482.76959       2630000.0    0.0092000000       1.3940320       3.9627110       6.0000000       6.0000000   2.6200055e+19       28.138039
       488.39500       488.33939       488.58173       1110000.0    0.0053000000       1.1472790       3.6851760       6.0000000       8.0000000   1.9800030e+19       28.432903
       492.60050       492.47580       492.96478       1530000.0    0.0056000000      0.75244900       3.2686810       4.0000000       4.0000000   3.2881448e+19       29.312368
       506.78700       506.63919       507.23694       2920000.0    0.0084000000       1.5169170       3.9627110       8.0000000       6.0000000   2.7796425e+19       28.092585
       513.64670       513.44525       513.89160       4500000.0     0.017800000      0.75003200       3.1631630       2.0000000       2.0000000   5.9685116e+19       29.522879
       514.16200       514.08307       514.33838       1200000.0    0.0023800000      0.75244900       3.1631630       4.0000000       2.0000000   1.7114397e+19       29.595472
       514.36870       514.33838       514.68970       1680000.0    0.0044000000       1.1472790       3.5570210       6.0000000       4.0000000   1.3969351e+19       28.362799
       514.76200       514.68970       515.04132       900000.00    0.0023800000       1.3940320       3.8019330       6.0000000       4.0000000   1.1812664e+19       28.819259
       540.25070       539.99640       540.46613       1350000.0    0.0029600000       0.0000000       2.2942930       4.0000000       2.0000000   6.1011420e+19       30.748830
       543.52670       543.42816       543.79956       1070000.0    0.0071000000       1.3576540       3.6381250       4.0000000       6.0000000   1.7205974e+19       28.616860
       562.06840       561.96466       562.31384       600000.00    0.0035500000       1.5169170       3.7221540       8.0000000       10.000000   1.3359790e+19       28.431511
       563.57100       563.29266       563.88782       360000.00    0.0017000000       1.3576540       3.5570210       4.0000000       4.0000000   1.9373357e+19       30.230277
       564.59110       564.27319       564.86938       1430000.0    0.0091000000       1.1472790       3.3426710       6.0000000       8.0000000   4.3540286e+19       28.967592
       581.11040       580.77222       581.49408       570000.00    0.0021500000      0.49146300       2.6244490       8.0000000       6.0000000   4.6780004e+19       30.246836
       587.73550       587.48346       588.06744       2330000.0     0.014500000       1.6553690       3.7643110       10.000000       12.000000   6.5860036e+19       28.487778
       593.97650       593.82886       594.27148       1600000.0     0.016900000       1.2099580       3.2967440       2.0000000       4.0000000   2.9375286e+19       29.154877
       594.40240       594.27148       594.75140       2130000.0     0.017000000       1.2368430       3.3221270       4.0000000       6.0000000   5.4658301e+19       29.084241
       599.72340       599.53436       600.16748       2400000.0     0.012900000       1.6553690       3.7221540       10.000000       10.000000   5.5093054e+19       28.461991
       630.95790       630.71735       631.22614       1830000.0     0.016400000       1.3576540       3.3221270       4.0000000       6.0000000   5.8311435e+19       29.300744
       632.50830       632.32336       632.75494       340000.00    0.0041000000      0.75003200       2.7096830       2.0000000       4.0000000   1.2936722e+19       29.883606
       638.94470       638.66882       639.22351       11700000.     0.057000000       2.6226790       4.5626040       10.000000       8.0000000   2.6953048e+19       26.386087
       645.03600       644.83630       645.35620       2200000.0     0.017200000       1.5169170       3.4385070       8.0000000       10.000000   7.1120264e+19       28.804351
       648.53700       648.20282       649.08740       5800000.0     0.036600000       1.6553690       3.5666100       10.000000       10.000000   1.5123649e+20       28.589423
       661.19500       660.89795       661.67633       1880000.0    0.0082000000       1.3940320       3.2686810       6.0000000       4.0000000   4.2563569e+19       29.364454
       662.13000       661.96326       662.45551       303000.00    0.0029900000      0.75244900       2.6244490       4.0000000       6.0000000   2.5207413e+19       30.260422
       686.62300       686.24774       686.96979       2580000.0     0.013700000       1.5169170       3.3221270       8.0000000       6.0000000   6.7895921e+19       29.109448
       696.61300       696.20776       696.98291       1210000.0    0.0088000000       1.5169170       3.2962350       8.0000000       8.0000000   2.2029429e+20       30.755924
       740.78900       740.26642       741.08807       2030000.0     0.011100000       1.3940320       3.0672490       6.0000000       4.0000000   5.3143976e+19       29.509696
