n_lines = 41
Unit of Inte: [ph/(s m^2 sr)]
Assumed plasma length [m] = 0.00500000
Te [eV] = 0.55767213+/-0.056615682
Intercept = 32.294353+/-0.63128716
bestnorm: the value of the summed squared residuals for the returned parameter values.
bestnorm = 10.918427

 Wavelength(nm) wavel_l(nm) wavel_u(nm) Aki(s^-1) fik Ei(eV) Ek(eV) gi gk Iki ln(Iki/gk*Aki)
       379.20150       379.20120       379.31793       900000.00    0.0019400000       0.0000000       3.2686810       4.0000000       4.0000000   2.1540986e+17       24.814875
       400.68350       400.66632       400.91339       760000.00    0.0024500000      0.24922100       3.3426710       6.0000000       8.0000000   9.1871440e+17       25.741236
       402.69440       402.54791       402.87070       3600000.0    0.0088000000      0.75244900       3.8304510       4.0000000       4.0000000   1.4978469e+18       25.367822
       406.13990       406.11304       406.38864       6500000.0     0.032200000      0.75003200       3.8019330       2.0000000       4.0000000   2.6938746e+18       25.363905
       406.46300       406.38864       406.61426       3830000.0    0.0095000000      0.75244900       3.8019330       4.0000000       4.0000000   1.4610359e+18       25.281008
       406.79080       406.73965       406.91528       840000.00    0.0028000000      0.24922100       3.2962350       6.0000000       8.0000000   1.1042042e+18       25.825058
       413.61980       413.49451       413.85190       1820000.0    0.0035000000      0.49146300       3.4881570       8.0000000       6.0000000   2.5343856e+18       26.170376
       414.78910       414.66992       415.00275       1790000.0    0.0036900000      0.69692000       3.6851760       10.000000       8.0000000   2.4270422e+18       25.856037
       438.60680       438.51056       438.80887       1030000.0    0.0045000000      0.75244900       3.5784330       4.0000000       6.0000000   1.8554335e+18       26.427821
       457.43060       457.29550       457.69202       1230000.0    0.0038400000       0.0000000       2.7096830       4.0000000       4.0000000   4.4789079e+18       27.537092
       461.95120       461.87686       462.13434       5300000.0     0.011200000       1.1472790       3.8304510       6.0000000       4.0000000   2.5704550e+18       25.521103
       466.91430       466.82343       467.14160       2850000.0    0.0062000000       1.1472790       3.8019330       6.0000000       4.0000000   2.2044707e+18       25.987895
       474.01630       473.93417       474.19858       5000000.0     0.016900000       1.2368430       3.8517350       4.0000000       4.0000000   1.6691623e+18       25.147611
       478.09350       478.00494       478.36063       2160000.0    0.0059000000       1.3254310       3.9180180       10.000000       8.0000000   1.7566790e+18       25.344896
       481.27490       481.15613       481.45450       1200000.0    0.0042000000       0.0000000       2.5754390       4.0000000       4.0000000   4.3901038e+18       27.541758
       482.54290       482.35077       482.79953       2630000.0    0.0092000000       1.3940320       3.9627110       6.0000000       6.0000000   2.0796814e+18       25.604493
       488.39500       488.27881       488.58173       1110000.0    0.0053000000       1.1472790       3.6851760       6.0000000       8.0000000   1.8586260e+18       26.067057
       492.60050       492.47580       492.84250       1530000.0    0.0056000000      0.75244900       3.2686810       4.0000000       4.0000000   2.4126615e+18       26.700190
       506.78700       506.63919       506.98517       2920000.0    0.0084000000       1.5169170       3.9627110       8.0000000       6.0000000   1.7266535e+18       25.313863
       513.64670       513.50897       513.89160       4500000.0     0.017800000      0.75003200       3.1631630       2.0000000       2.0000000   3.5252045e+18       26.693735
       514.16200       514.05115       514.33838       1200000.0    0.0023800000      0.75244900       3.1631630       4.0000000       2.0000000   1.2642645e+18       26.990043
       514.36870       514.33838       514.43420       1680000.0    0.0044000000       1.1472790       3.5570210       6.0000000       4.0000000   1.2501458e+17       23.646608
       514.76200       514.68970       515.07324       900000.00    0.0023800000       1.3940320       3.8019330       6.0000000       4.0000000   9.3551248e+17       26.283426
       540.25070       540.02991       540.46613       1350000.0    0.0029600000       0.0000000       2.2942930       4.0000000       2.0000000   4.9726871e+18       28.241730
       543.52670       543.42816       543.79956       1070000.0    0.0071000000       1.3576540       3.6381250       4.0000000       6.0000000   1.2851414e+18       26.022472
       562.06840       561.96466       562.34875       600000.00    0.0035500000       1.5169170       3.7221540       8.0000000       10.000000   8.8257415e+17       25.714349
       564.59110       564.44849       564.86938       1430000.0    0.0091000000       1.1472790       3.3426710       6.0000000       8.0000000   2.7026307e+18       26.188131
       581.11040       580.84436       581.42188       570000.00    0.0021500000      0.49146300       2.6244490       8.0000000       6.0000000   3.9624191e+18       27.778235
       587.73550       587.59290       588.06744       2330000.0     0.014500000       1.6553690       3.7643110       10.000000       12.000000   4.3604023e+18       25.772811
       593.97650       593.86572       594.23462       1600000.0     0.016900000       1.2099580       3.2967440       2.0000000       4.0000000   2.1142004e+18       26.523400
       594.40240       594.23462       594.75140       2130000.0     0.017000000       1.2368430       3.3221270       4.0000000       6.0000000   3.8585231e+18       26.433424
       599.72340       599.57159       600.16748       2400000.0     0.012900000       1.6553690       3.7221540       10.000000       10.000000   3.5520863e+18       25.720502
       630.95790       630.67822       631.18695       1830000.0     0.016400000       1.3576540       3.3221270       4.0000000       6.0000000   3.8900538e+18       26.593369
       632.50830       632.36261       632.71570       340000.00    0.0041000000      0.75003200       2.7096830       2.0000000       4.0000000   1.3579250e+18       27.629494
       638.94470       638.74799       639.22351       11700000.     0.057000000       2.6226790       4.5626040       10.000000       8.0000000   2.0627583e+18       23.816035
       645.03600       644.79633       645.39624       2200000.0     0.017200000       1.5169170       3.4385070       8.0000000       10.000000   4.5991689e+18       26.065854
       648.53700       648.24304       648.96667       5800000.0     0.036600000       1.6553690       3.5666100       10.000000       10.000000   1.0007721e+19       25.873935
       661.19500       660.85706       661.43042       1880000.0    0.0082000000       1.3940320       3.2686810       6.0000000       4.0000000   2.9674429e+18       26.701156
       662.13000       661.92230       662.37347       303000.00    0.0029900000      0.75244900       2.6244490       4.0000000       6.0000000   2.2953790e+18       27.864182
       686.62300       686.24774       686.92731       2580000.0     0.013700000       1.5169170       3.3221270       8.0000000       6.0000000   4.4608567e+18       26.386813
       740.78900       740.49457       741.36218       2030000.0     0.011100000       1.3940320       3.0672490       6.0000000       4.0000000   3.3964657e+18       26.759426
