n_lines = 41
Unit of Inte: [ph/(s m^2 sr)]
Assumed plasma length [m] = 0.00500000
Te [eV] = 0.52981677+/-0.025280183
Intercept = 33.734789+/-0.31230350
bestnorm: the value of the summed squared residuals for the returned parameter values.
bestnorm = 2.6721446

 Wavelength(nm) wavel_l(nm) wavel_u(nm) Aki(s^-1) fik Ei(eV) Ek(eV) gi gk Iki ln(Iki/gk*Aki)
       379.20150       379.13123       379.36462       900000.00    0.0019400000       0.0000000       3.2686810       4.0000000       4.0000000   3.9720921e+18       27.729380
       400.68350       400.59225       400.88867       760000.00    0.0024500000      0.24922100       3.3426710       6.0000000       8.0000000   3.3534401e+18       27.036003
       402.69440       402.54791       402.84586       3600000.0    0.0088000000      0.75244900       3.8304510       4.0000000       4.0000000   3.7196304e+18       26.277417
       406.13990       406.11304       406.31345       6500000.0     0.032200000      0.75003200       3.8019330       2.0000000       4.0000000   5.6776496e+18       26.109462
       406.46300       406.41370       406.58917       3830000.0    0.0095000000      0.75244900       3.8019330       4.0000000       4.0000000   3.3547185e+18       26.112230
       406.79080       406.73965       406.96548       840000.00    0.0028000000      0.24922100       3.2962350       6.0000000       8.0000000   4.4415406e+18       27.216934
       413.61980       413.49451       413.80081       1820000.0    0.0035000000      0.49146300       3.4881570       8.0000000       6.0000000   5.7220960e+18       26.984760
       414.78910       414.66992       414.97711       1790000.0    0.0036900000      0.69692000       3.6851760       10.000000       8.0000000   6.4961170e+18       26.840569
       438.60680       438.51056       438.83600       1030000.0    0.0045000000      0.75244900       3.5784330       4.0000000       6.0000000   4.2327818e+18       27.252562
       457.43060       457.32382       457.69202       1230000.0    0.0038400000       0.0000000       2.7096830       4.0000000       4.0000000   1.3835814e+19       28.664973
       461.95120       461.76248       462.16296       5300000.0     0.011200000       1.1472790       3.8304510       6.0000000       4.0000000   7.7644806e+18       26.626579
       466.91430       466.73666       467.19949       2850000.0    0.0062000000       1.1472790       3.8019330       6.0000000       4.0000000   5.1713117e+18       26.840534
       474.01630       473.96353       474.25735       5000000.0     0.016900000       1.2368430       3.8517350       4.0000000       4.0000000   4.4074179e+18       26.118578
       478.09350       478.00494       478.33096       2160000.0    0.0059000000       1.3254310       3.9180180       10.000000       8.0000000   5.4342180e+18       26.474187
       481.27490       481.15613       481.48434       1200000.0    0.0042000000       0.0000000       2.5754390       4.0000000       4.0000000   1.5014346e+19       28.771411
       482.54290       482.38068       482.76959       2630000.0    0.0092000000       1.3940320       3.9627110       6.0000000       6.0000000   5.1866623e+18       26.518368
       488.39500       488.33939       488.58173       1110000.0    0.0053000000       1.1472790       3.6851760       6.0000000       8.0000000   3.5009919e+18       26.700266
       492.60050       492.47580       492.90366       1530000.0    0.0056000000      0.75244900       3.2686810       4.0000000       4.0000000   6.2358752e+18       27.649778
       506.78700       506.63919       507.01663       2920000.0    0.0084000000       1.5169170       3.9627110       8.0000000       6.0000000   4.6069531e+18       26.295245
       513.64670       513.50897       513.85974       4500000.0     0.017800000      0.75003200       3.1631630       2.0000000       2.0000000   1.2309243e+19       27.944147
       514.16200       514.08307       514.33838       1200000.0    0.0023800000      0.75244900       3.1631630       4.0000000       2.0000000   3.6107417e+18       28.039466
       514.36870       514.33838       514.53003       1680000.0    0.0044000000       1.1472790       3.5570210       6.0000000       4.0000000   2.3925032e+18       26.598273
       514.76200       514.68970       515.04132       900000.00    0.0023800000       1.3940320       3.8019330       6.0000000       4.0000000   2.6971834e+18       27.342295
       540.25070       540.13055       540.46613       1350000.0    0.0029600000       0.0000000       2.2942930       4.0000000       2.0000000   1.4402624e+19       29.305180
       543.52670       543.42816       543.79956       1070000.0    0.0071000000       1.3576540       3.6381250       4.0000000       6.0000000   3.7861469e+18       27.102952
       562.06840       561.96466       562.31384       600000.00    0.0035500000       1.5169170       3.7221540       8.0000000       10.000000   2.8645231e+18       26.891664
       564.59110       564.34332       564.86938       1430000.0    0.0091000000       1.1472790       3.3426710       6.0000000       8.0000000   9.2289884e+18       27.416255
       581.11040       580.98871       581.42188       570000.00    0.0021500000      0.49146300       2.6244490       8.0000000       6.0000000   9.5703328e+18       28.660049
       587.73550       587.55640       588.06744       2330000.0     0.014500000       1.6553690       3.7643110       10.000000       12.000000   1.5420929e+19       27.035972
       593.97650       593.82886       594.27148       1600000.0     0.016900000       1.2099580       3.2967440       2.0000000       4.0000000   5.7595578e+18       27.525584
       594.40240       594.27148       594.75140       2130000.0     0.017000000       1.2368430       3.3221270       4.0000000       6.0000000   1.0851657e+19       27.467457
       599.72340       599.38544       600.09296       2400000.0     0.012900000       1.6553690       3.7221540       10.000000       10.000000   1.0924528e+19       26.843978
       630.95790       630.52173       631.18695       1830000.0     0.016400000       1.3576540       3.3221270       4.0000000       6.0000000   1.0609437e+19       27.596690
       632.50830       632.36261       632.75494       340000.00    0.0041000000      0.75003200       2.7096830       2.0000000       4.0000000   3.2841495e+18       28.512644
       638.94470       638.78760       639.18384       11700000.     0.057000000       2.6226790       4.5626040       10.000000       8.0000000   4.4673733e+18       24.588791
       645.03600       644.83630       645.43622       2200000.0     0.017200000       1.5169170       3.4385070       8.0000000       10.000000   1.5954956e+19       27.309748
       648.53700       648.12250       648.96667       5800000.0     0.036600000       1.6553690       3.5666100       10.000000       10.000000   3.0612842e+19       26.991998
       661.19500       660.93890       661.43042       1880000.0    0.0082000000       1.3940320       3.2686810       6.0000000       4.0000000   6.8440931e+18       27.536841
       662.13000       661.88129       662.45551       303000.00    0.0029900000      0.75244900       2.6244490       4.0000000       6.0000000   5.6634071e+18       28.767310
       686.62300       686.41754       686.92731       2580000.0     0.013700000       1.5169170       3.3221270       8.0000000       6.0000000   1.2618364e+19       27.426625
       740.78900       740.49457       741.27081       2030000.0     0.011100000       1.3940320       3.0672490       6.0000000       4.0000000   1.1274629e+19       27.959246
