n_lines = 41
Unit of Inte: [ph/(s m^2 sr)]
Assumed plasma length [m] = 0.00500000
Te [eV] = 0.53448269+/-0.023422667
Intercept = 32.698608+/-0.28432635
bestnorm: the value of the summed squared residuals for the returned parameter values.
bestnorm = 2.2148299

 Wavelength(nm) wavel_l(nm) wavel_u(nm) Aki(s^-1) fik Ei(eV) Ek(eV) gi gk Iki ln(Iki/gk*Aki)
       379.20150       379.10788       379.34128       900000.00    0.0019400000       0.0000000       3.2686810       4.0000000       4.0000000   1.5874833e+18       26.812237
       400.68350       400.59225       400.86395       760000.00    0.0024500000      0.24922100       3.3426710       6.0000000       8.0000000   1.6870563e+18       26.349002
       402.69440       402.54791       402.84586       3600000.0    0.0088000000      0.75244900       3.8304510       4.0000000       4.0000000   1.4545203e+18       25.338469
       406.13990       406.03790       406.28839       6500000.0     0.032200000      0.75003200       3.8019330       2.0000000       4.0000000   2.5585860e+18       25.312379
       406.46300       406.41370       406.61426       3830000.0    0.0095000000      0.75244900       3.8019330       4.0000000       4.0000000   1.6000990e+18       25.371927
       406.79080       406.61426       406.94040       840000.00    0.0028000000      0.24922100       3.2962350       6.0000000       8.0000000   2.5155908e+18       26.648441
       413.61980       413.54556       413.82635       1820000.0    0.0035000000      0.49146300       3.4881570       8.0000000       6.0000000   1.9249962e+18       25.895349
       414.78910       414.69553       415.05396       1790000.0    0.0036900000      0.69692000       3.6851760       10.000000       8.0000000   2.7012538e+18       25.963080
       438.60680       438.53766       438.83600       1030000.0    0.0045000000      0.75244900       3.5784330       4.0000000       6.0000000   1.5209314e+18       26.229026
       457.43060       457.29550       457.66370       1230000.0    0.0038400000       0.0000000       2.7096830       4.0000000       4.0000000   4.6224609e+18       27.568640
       461.95120       461.79108       462.16296       5300000.0     0.011200000       1.1472790       3.8304510       6.0000000       4.0000000   2.7396563e+18       25.584852
       466.91430       466.82343       467.14160       2850000.0    0.0062000000       1.1472790       3.8019330       6.0000000       4.0000000   1.9620076e+18       25.871376
       474.01630       473.93417       474.19858       5000000.0     0.016900000       1.2368430       3.8517350       4.0000000       4.0000000   1.6296778e+18       25.123671
       478.09350       477.97534       478.30133       2160000.0    0.0059000000       1.3254310       3.9180180       10.000000       8.0000000   1.9825371e+18       25.465849
       481.27490       481.12628       481.48434       1200000.0    0.0042000000       0.0000000       2.5754390       4.0000000       4.0000000   5.4696463e+18       27.761619
       482.54290       482.35077       482.73969       2630000.0    0.0092000000       1.3940320       3.9627110       6.0000000       6.0000000   2.2212831e+18       25.670363
       488.39500       488.30911       488.55142       1110000.0    0.0053000000       1.1472790       3.6851760       6.0000000       8.0000000   1.1467342e+18       25.584138
       492.60050       492.44525       492.93420       1530000.0    0.0056000000      0.75244900       3.2686810       4.0000000       4.0000000   2.8353119e+18       26.861611
       506.78700       506.63919       506.98517       2920000.0    0.0084000000       1.5169170       3.9627110       8.0000000       6.0000000   1.8348383e+18       25.374634
       513.64670       513.47711       513.92352       4500000.0     0.017800000      0.75003200       3.1631630       2.0000000       2.0000000   3.7985327e+18       26.768411
       514.16200       514.08307       514.33838       1200000.0    0.0023800000      0.75244900       3.1631630       4.0000000       2.0000000   1.2740799e+18       26.997777
       514.36870       514.33838       514.53003       1680000.0    0.0044000000       1.1472790       3.5570210       6.0000000       4.0000000   7.7812276e+17       25.475062
       514.76200       514.65778       514.94537       900000.00    0.0023800000       1.3940320       3.8019330       6.0000000       4.0000000   8.1122291e+17       26.140875
       540.25070       540.06348       540.43256       1350000.0    0.0029600000       0.0000000       2.2942930       4.0000000       2.0000000   4.4063560e+18       28.120817
       543.52670       543.39441       543.79956       1070000.0    0.0071000000       1.3576540       3.6381250       4.0000000       6.0000000   1.3031028e+18       26.036351
       562.06840       561.99957       562.34875       600000.00    0.0035500000       1.5169170       3.7221540       8.0000000       10.000000   7.8647956e+17       25.599073
       564.59110       564.44849       564.86938       1430000.0    0.0091000000       1.1472790       3.3426710       6.0000000       8.0000000   3.0067269e+18       26.294757
       581.11040       580.95258       581.45795       570000.00    0.0021500000      0.49146300       2.6244490       8.0000000       6.0000000   3.3445269e+18       27.608706
       587.73550       587.51990       588.03094       2330000.0     0.014500000       1.6553690       3.7643110       10.000000       12.000000   5.0171329e+18       25.913105
       593.97650       593.82886       594.23462       1600000.0     0.016900000       1.2099580       3.2967440       2.0000000       4.0000000   2.3411482e+18       26.625365
       594.40240       594.23462       594.86218       2130000.0     0.017000000       1.2368430       3.3221270       4.0000000       6.0000000   3.4582084e+18       26.323890
       599.72340       599.45990       599.98120       2400000.0     0.012900000       1.6553690       3.7221540       10.000000       10.000000   4.2821619e+18       25.907425
       630.95790       630.67822       631.18695       1830000.0     0.016400000       1.3576540       3.3221270       4.0000000       6.0000000   4.0943782e+18       26.644561
       632.50830       632.40186       632.99048       340000.00    0.0041000000      0.75003200       2.7096830       2.0000000       4.0000000   1.5757170e+18       27.778247
       638.94470       638.82721       639.18384       11700000.     0.057000000       2.6226790       4.5626040       10.000000       8.0000000   2.0150526e+18       23.792636
       645.03600       644.79633       645.27618       2200000.0     0.017200000       1.5169170       3.4385070       8.0000000       10.000000   4.7393059e+18       26.095869
       648.53700       648.16266       648.84601       5800000.0     0.036600000       1.6553690       3.5666100       10.000000       10.000000   9.9077384e+18       25.863894
       661.19500       660.93890       661.47137       1880000.0    0.0082000000       1.3940320       3.2686810       6.0000000       4.0000000   2.9848695e+18       26.707011
       662.13000       661.92230       662.49658       303000.00    0.0029900000      0.75244900       2.6244490       4.0000000       6.0000000   2.6993830e+18       28.026307
       686.62300       686.33264       686.96979       2580000.0     0.013700000       1.5169170       3.3221270       8.0000000       6.0000000   4.9713973e+18       26.495173
       740.78900       740.54022       741.22510       2030000.0     0.011100000       1.3940320       3.0672490       6.0000000       4.0000000   3.9860617e+18       26.919495
