n_lines = 41
Unit of Inte: [ph/(s m^2 sr)]
Assumed plasma length [m] = 0.00500000
Te [eV] = 0.55674765+/-0.025898599
Intercept = 35.026479+/-0.28973941
bestnorm: the value of the summed squared residuals for the returned parameter values.
bestnorm = 2.2999654

 Wavelength(nm) wavel_l(nm) wavel_u(nm) Aki(s^-1) fik Ei(eV) Ek(eV) gi gk Iki ln(Iki/gk*Aki)
       379.20150       379.13123       379.41132       900000.00    0.0019400000       0.0000000       3.2686810       4.0000000       4.0000000   1.5307538e+19       29.078433
       400.68350       400.59225       400.83926       760000.00    0.0024500000      0.24922100       3.3426710       6.0000000       8.0000000   1.8834582e+19       28.761711
       402.69440       402.57275       402.87070       3600000.0    0.0088000000      0.75244900       3.8304510       4.0000000       4.0000000   2.0107976e+19       27.964909
       406.13990       405.98785       406.31345       6500000.0     0.032200000      0.75003200       3.8019330       2.0000000       4.0000000   3.9522426e+19       28.049793
       406.46300       406.41370       406.61426       3830000.0    0.0095000000      0.75244900       3.8019330       4.0000000       4.0000000   1.9981166e+19       27.896652
       406.79080       406.71457       406.94040       840000.00    0.0028000000      0.24922100       3.2962350       6.0000000       8.0000000   1.9351520e+19       28.688704
       413.61980       413.49451       413.87741       1820000.0    0.0035000000      0.49146300       3.4881570       8.0000000       6.0000000   3.1502848e+19       28.690503
       414.78910       414.69553       414.97711       1790000.0    0.0036900000      0.69692000       3.6851760       10.000000       8.0000000   3.3347240e+19       28.476339
       438.60680       438.51056       438.86313       1030000.0    0.0045000000      0.75244900       3.5784330       4.0000000       6.0000000   2.4854834e+19       29.022755
       457.43060       457.32382       457.72037       1230000.0    0.0038400000       0.0000000       2.7096830       4.0000000       4.0000000   5.6577668e+19       30.073327
       461.95120       461.73389       462.16296       5300000.0     0.011200000       1.1472790       3.8304510       6.0000000       4.0000000   3.9465214e+19       28.252440
       466.91430       466.76559       467.19949       2850000.0    0.0062000000       1.1472790       3.8019330       6.0000000       4.0000000   2.6540280e+19       28.476071
       474.01630       473.96353       474.34552       5000000.0     0.016900000       1.2368430       3.8517350       4.0000000       4.0000000   1.8493744e+19       27.552721
       478.09350       478.00494       478.36063       2160000.0    0.0059000000       1.3254310       3.9180180       10.000000       8.0000000   2.7681070e+19       28.102220
       481.27490       481.12628       481.51419       1200000.0    0.0042000000       0.0000000       2.5754390       4.0000000       4.0000000   6.1567075e+19       30.182532
       482.54290       482.38068       482.76959       2630000.0    0.0092000000       1.3940320       3.9627110       6.0000000       6.0000000   2.5832252e+19       28.123902
       488.39500       488.33939       488.58173       1110000.0    0.0053000000       1.1472790       3.6851760       6.0000000       8.0000000   2.0504502e+19       28.467864
       492.60050       492.47580       492.87308       1530000.0    0.0056000000      0.75244900       3.2686810       4.0000000       4.0000000   3.4593790e+19       29.363133
       506.78700       506.63919       507.01663       2920000.0    0.0084000000       1.5169170       3.9627110       8.0000000       6.0000000   2.1866468e+19       27.852632
       513.64670       513.47711       513.89160       4500000.0     0.017800000      0.75003200       3.1631630       2.0000000       2.0000000   5.9928130e+19       29.526943
       514.16200       514.08307       514.33838       1200000.0    0.0023800000      0.75244900       3.1631630       4.0000000       2.0000000   1.7184034e+19       29.599533
       514.36870       514.33838       514.68970       1680000.0    0.0044000000       1.1472790       3.5570210       6.0000000       4.0000000   1.5094043e+19       28.440233
       514.76200       514.68970       515.04132       900000.00    0.0023800000       1.3940320       3.8019330       6.0000000       4.0000000   1.2087352e+19       28.842247
       540.25070       539.99640       540.46613       1350000.0    0.0029600000       0.0000000       2.2942930       4.0000000       2.0000000   5.9509055e+19       30.723898
       543.52670       543.42816       543.79956       1070000.0    0.0071000000       1.3576540       3.6381250       4.0000000       6.0000000   1.7890716e+19       28.655885
       562.06840       561.99957       562.34875       600000.00    0.0035500000       1.5169170       3.7221540       8.0000000       10.000000   1.2534761e+19       28.367767
       564.59110       564.30829       564.83429       1430000.0    0.0091000000       1.1472790       3.3426710       6.0000000       8.0000000   4.0968017e+19       28.906697
       581.11040       580.88043       581.49408       570000.00    0.0021500000      0.49146300       2.6244490       8.0000000       6.0000000   4.7905761e+19       30.270616
       587.73550       587.37402       588.10400       2330000.0     0.014500000       1.6553690       3.7643110       10.000000       12.000000   6.6758085e+19       28.501322
       593.97650       593.75513       594.27148       1600000.0     0.016900000       1.2099580       3.2967440       2.0000000       4.0000000   2.7042043e+19       29.072116
       594.40240       594.27148       594.97302       2130000.0     0.017000000       1.2368430       3.3221270       4.0000000       6.0000000   5.2264979e+19       29.039466
       599.72340       599.42267       600.16748       2400000.0     0.012900000       1.6553690       3.7221540       10.000000       10.000000   5.7340724e+19       28.501978
       630.95790       630.52173       631.22614       1830000.0     0.016400000       1.3576540       3.3221270       4.0000000       6.0000000   5.5839765e+19       29.257432
       632.50830       632.20575       633.02972       340000.00    0.0041000000      0.75003200       2.7096830       2.0000000       4.0000000   2.2370137e+19       30.431263
       638.94470       638.78760       639.22351       11700000.     0.057000000       2.6226790       4.5626040       10.000000       8.0000000   2.4540987e+19       26.292335
       645.03600       644.87628       645.35620       2200000.0     0.017200000       1.5169170       3.4385070       8.0000000       10.000000   6.9977566e+19       28.788153
       648.53700       648.28320       649.12762       5800000.0     0.036600000       1.6553690       3.5666100       10.000000       10.000000   1.5030158e+20       28.583222
       661.19500       660.85706       661.47137       1880000.0    0.0082000000       1.3940320       3.2686810       6.0000000       4.0000000   3.8250202e+19       29.257604
       662.13000       661.96326       662.45551       303000.00    0.0029900000      0.75244900       2.6244490       4.0000000       6.0000000   2.3338789e+19       30.183401
       686.62300       686.37512       686.96979       2580000.0     0.013700000       1.5169170       3.3221270       8.0000000       6.0000000   6.9468210e+19       29.132341
       740.78900       740.40332       741.22510       2030000.0     0.011100000       1.3940320       3.0672490       6.0000000       4.0000000   5.0547636e+19       29.459607
