n_lines = 41
Unit of Inte: [ph/(s m^2 sr)]
Assumed plasma length [m] = 0.00500000
Te [eV] = 0.53543097+/-0.025232023
Intercept = 34.679408+/-0.30520608
bestnorm: the value of the summed squared residuals for the returned parameter values.
bestnorm = 2.5520696

 Wavelength(nm) wavel_l(nm) wavel_u(nm) Aki(s^-1) fik Ei(eV) Ek(eV) gi gk Iki ln(Iki/gk*Aki)
       379.20150       379.13123       379.34128       900000.00    0.0019400000       0.0000000       3.2686810       4.0000000       4.0000000   1.1054530e+19       28.752928
       400.68350       400.56757       400.91339       760000.00    0.0024500000      0.24922100       3.3426710       6.0000000       8.0000000   1.1219342e+19       28.243656
       402.69440       402.57275       402.87070       3600000.0    0.0088000000      0.75244900       3.8304510       4.0000000       4.0000000   1.0284267e+19       27.294408
       406.13990       405.96280       406.41370       6500000.0     0.032200000      0.75003200       3.8019330       2.0000000       4.0000000   2.2845632e+19       27.501685
       406.46300       406.41370       406.61426       3830000.0    0.0095000000      0.75244900       3.8019330       4.0000000       4.0000000   1.0453081e+19       27.248759
       406.79080       406.73965       406.94040       840000.00    0.0028000000      0.24922100       3.2962350       6.0000000       8.0000000   1.0311060e+19       28.059150
       413.61980       413.52002       413.87741       1820000.0    0.0035000000      0.49146300       3.4881570       8.0000000       6.0000000   1.6651014e+19       28.052896
       414.78910       414.69553       414.97711       1790000.0    0.0036900000      0.69692000       3.6851760       10.000000       8.0000000   1.6293542e+19       27.760133
       438.60680       438.48343       438.83600       1030000.0    0.0045000000      0.75244900       3.5784330       4.0000000       6.0000000   1.3346220e+19       28.400936
       457.43060       457.32382       457.69202       1230000.0    0.0038400000       0.0000000       2.7096830       4.0000000       4.0000000   3.2752140e+19       29.526681
       461.95120       461.87686       462.16296       5300000.0     0.011200000       1.1472790       3.8304510       6.0000000       4.0000000   2.0617930e+19       27.603181
       466.91430       466.76559       467.22842       2850000.0    0.0062000000       1.1472790       3.8019330       6.0000000       4.0000000   1.4667286e+19       27.883027
       474.01630       473.96353       474.19858       5000000.0     0.016900000       1.2368430       3.8517350       4.0000000       4.0000000   1.0771590e+19       27.012201
       478.09350       478.00494       478.39029       2160000.0    0.0059000000       1.3254310       3.9180180       10.000000       8.0000000   1.5100810e+19       27.496220
       481.27490       481.09647       481.51419       1200000.0    0.0042000000       0.0000000       2.5754390       4.0000000       4.0000000   3.5996181e+19       29.645818
       482.54290       482.35077       482.76959       2630000.0    0.0092000000       1.3940320       3.9627110       6.0000000       6.0000000   1.3348626e+19       27.463691
       488.39500       488.33939       488.55142       1110000.0    0.0053000000       1.1472790       3.6851760       6.0000000       8.0000000   1.0222700e+19       27.771830
       492.60050       492.47580       492.81192       1530000.0    0.0056000000      0.75244900       3.2686810       4.0000000       4.0000000   1.7386906e+19       28.675176
       506.78700       506.63919       507.17398       2920000.0    0.0084000000       1.5169170       3.9627110       8.0000000       6.0000000   1.4224107e+19       27.422616
       513.64670       513.44525       513.89160       4500000.0     0.017800000      0.75003200       3.1631630       2.0000000       2.0000000   3.4247422e+19       28.967408
       514.16200       514.05115       514.33838       1200000.0    0.0023800000      0.75244900       3.1631630       4.0000000       2.0000000   1.0000271e+19       29.058165
       514.36870       514.33838       514.53003       1680000.0    0.0044000000       1.1472790       3.5570210       6.0000000       4.0000000   6.5359996e+18       27.603258
       514.76200       514.68970       515.04132       900000.00    0.0023800000       1.3940320       3.8019330       6.0000000       4.0000000   6.9610640e+18       28.290420
       540.25070       539.99640       540.46613       1350000.0    0.0029600000       0.0000000       2.2942930       4.0000000       2.0000000   3.5671330e+19       30.212117
       543.52670       543.42816       543.83337       1070000.0    0.0071000000       1.3576540       3.6381250       4.0000000       6.0000000   9.4368544e+18       28.016226
       562.06840       561.96466       562.38367       600000.00    0.0035500000       1.5169170       3.7221540       8.0000000       10.000000   6.6658329e+18       27.736257
       564.59110       564.30829       564.86938       1430000.0    0.0091000000       1.1472790       3.3426710       6.0000000       8.0000000   2.3730001e+19       28.360645
       581.11040       580.84436       581.49408       570000.00    0.0021500000      0.49146300       2.6244490       8.0000000       6.0000000   2.6994007e+19       29.696995
       587.73550       587.55640       588.06744       2330000.0     0.014500000       1.6553690       3.7643110       10.000000       12.000000   3.6880799e+19       27.907937
       593.97650       593.79199       594.27148       1600000.0     0.016900000       1.2099580       3.2967440       2.0000000       4.0000000   1.5413856e+19       28.509990
       594.40240       594.27148       594.75140       2130000.0     0.017000000       1.2368430       3.3221270       4.0000000       6.0000000   2.8715921e+19       28.440591
       599.72340       599.49713       600.16748       2400000.0     0.012900000       1.6553690       3.7221540       10.000000       10.000000   3.0182176e+19       27.860219
       630.95790       630.71735       631.22614       1830000.0     0.016400000       1.3576540       3.3221270       4.0000000       6.0000000   2.9596907e+19       28.622616
       632.50830       632.32336       633.02972       340000.00    0.0041000000      0.75003200       2.7096830       2.0000000       4.0000000   1.1935931e+19       29.803090
       638.94470       638.70837       639.18384       11700000.     0.057000000       2.6226790       4.5626040       10.000000       8.0000000   1.1724170e+19       25.553643
       645.03600       644.79633       645.35620       2200000.0     0.017200000       1.5169170       3.4385070       8.0000000       10.000000   4.1605302e+19       28.268206
       648.53700       648.20282       649.12762       5800000.0     0.036600000       1.6553690       3.5666100       10.000000       10.000000   8.0140377e+19       27.954358
       661.19500       660.85706       661.63531       1880000.0    0.0082000000       1.3940320       3.2686810       6.0000000       4.0000000   2.3801649e+19       28.783210
       662.13000       661.92230       662.49658       303000.00    0.0029900000      0.75244900       2.6244490       4.0000000       6.0000000   1.4371485e+19       29.698530
       686.62300       686.33264       686.96979       2580000.0     0.013700000       1.5169170       3.3221270       8.0000000       6.0000000   3.9944167e+19       28.578955
       740.78900       740.54022       741.27081       2030000.0     0.011100000       1.3940320       3.0672490       6.0000000       4.0000000   2.7849492e+19       28.863506
