n_lines = 41
Unit of Inte: [ph/(s m^2 sr)]
Assumed plasma length [m] = 0.00500000
Te [eV] = 0.51893089+/-0.024901239
Intercept = 33.881800+/-0.32066381
bestnorm: the value of the summed squared residuals for the returned parameter values.
bestnorm = 2.8171252

 Wavelength(nm) wavel_l(nm) wavel_u(nm) Aki(s^-1) fik Ei(eV) Ek(eV) gi gk Iki ln(Iki/gk*Aki)
       379.20150       379.13123       379.36462       900000.00    0.0019400000       0.0000000       3.2686810       4.0000000       4.0000000   4.3749480e+18       27.825982
       400.68350       400.56757       400.83926       760000.00    0.0024500000      0.24922100       3.3426710       6.0000000       8.0000000   3.6712272e+18       27.126542
       402.69440       402.59756       402.87070       3600000.0    0.0088000000      0.75244900       3.8304510       4.0000000       4.0000000   3.6468026e+18       26.257644
       406.13990       406.11304       406.31345       6500000.0     0.032200000      0.75003200       3.8019330       2.0000000       4.0000000   4.9755450e+18       25.977459
       406.46300       406.41370       406.61426       3830000.0    0.0095000000      0.75244900       3.8019330       4.0000000       4.0000000   3.1317801e+18       26.043464
       406.79080       406.73965       406.94040       840000.00    0.0028000000      0.24922100       3.2962350       6.0000000       8.0000000   3.9142877e+18       27.090566
       413.61980       413.52002       413.82635       1820000.0    0.0035000000      0.49146300       3.4881570       8.0000000       6.0000000   6.4120964e+18       27.098611
       414.78910       414.64435       415.02835       1790000.0    0.0036900000      0.69692000       3.6851760       10.000000       8.0000000   6.3611023e+18       26.819566
       438.60680       438.48343       438.86313       1030000.0    0.0045000000      0.75244900       3.5784330       4.0000000       6.0000000   5.3792348e+18       27.492249
       457.43060       457.32382       457.66370       1230000.0    0.0038400000       0.0000000       2.7096830       4.0000000       4.0000000   1.2963811e+19       28.599874
       461.95120       461.76248       462.16296       5300000.0     0.011200000       1.1472790       3.8304510       6.0000000       4.0000000   7.9720496e+18       26.652962
       466.91430       466.79449       467.19949       2850000.0    0.0062000000       1.1472790       3.8019330       6.0000000       4.0000000   5.1844359e+18       26.843069
       474.01630       473.96353       474.19858       5000000.0     0.016900000       1.2368430       3.8517350       4.0000000       4.0000000   4.2066024e+18       26.071944
       478.09350       478.00494       478.39029       2160000.0    0.0059000000       1.3254310       3.9180180       10.000000       8.0000000   5.7698439e+18       26.534116
       481.27490       481.09647       481.48434       1200000.0    0.0042000000       0.0000000       2.5754390       4.0000000       4.0000000   1.4955712e+19       28.767498
       482.54290       482.41058       482.76959       2630000.0    0.0092000000       1.3940320       3.9627110       6.0000000       6.0000000   4.8159559e+18       26.444212
       488.39500       488.33939       488.55142       1110000.0    0.0053000000       1.1472790       3.6851760       6.0000000       8.0000000   3.8028316e+18       26.782966
       492.60050       492.50635       492.81192       1530000.0    0.0056000000      0.75244900       3.2686810       4.0000000       4.0000000   6.5039492e+18       27.691869
       506.78700       506.63919       506.98517       2920000.0    0.0084000000       1.5169170       3.9627110       8.0000000       6.0000000   3.9608804e+18       26.144144
       513.64670       513.50897       513.89160       4500000.0     0.017800000      0.75003200       3.1631630       2.0000000       2.0000000   1.2038898e+19       27.921939
       514.16200       514.08307       514.33838       1200000.0    0.0023800000      0.75244900       3.1631630       4.0000000       2.0000000   3.6844241e+18       28.059667
       514.36870       514.33838       514.53003       1680000.0    0.0044000000       1.1472790       3.5570210       6.0000000       4.0000000   2.4952104e+18       26.640306
       514.76200       514.68970       514.94537       900000.00    0.0023800000       1.3940320       3.8019330       6.0000000       4.0000000   1.9412796e+18       27.013435
       540.25070       540.09698       540.46613       1350000.0    0.0029600000       0.0000000       2.2942930       4.0000000       2.0000000   1.4343879e+19       29.301093
       543.52670       543.42816       543.73206       1070000.0    0.0071000000       1.3576540       3.6381250       4.0000000       6.0000000   3.1575673e+18       26.921405
       562.06840       561.92975       562.27893       600000.00    0.0035500000       1.5169170       3.7221540       8.0000000       10.000000   3.0202553e+18       26.944603
       564.59110       564.34332       564.83429       1430000.0    0.0091000000       1.1472790       3.3426710       6.0000000       8.0000000   8.1791216e+18       27.295490
       581.11040       580.88043       581.45795       570000.00    0.0021500000      0.49146300       2.6244490       8.0000000       6.0000000   1.0117707e+19       28.715668
       587.73550       587.55640       588.10400       2330000.0     0.014500000       1.6553690       3.7643110       10.000000       12.000000   1.5102343e+19       27.015096
       593.97650       593.75513       594.23462       1600000.0     0.016900000       1.2099580       3.2967440       2.0000000       4.0000000   6.2301721e+18       27.604127
       594.40240       594.23462       594.75140       2130000.0     0.017000000       1.2368430       3.3221270       4.0000000       6.0000000   1.1477564e+19       27.523534
       599.72340       599.45990       600.13019       2400000.0     0.012900000       1.6553690       3.7221540       10.000000       10.000000   1.1407394e+19       26.887229
       630.95790       630.79559       631.22614       1830000.0     0.016400000       1.3576540       3.3221270       4.0000000       6.0000000   1.1103567e+19       27.642212
       632.50830       632.40186       633.10828       340000.00    0.0041000000      0.75003200       2.7096830       2.0000000       4.0000000   4.8263506e+18       28.897627
       638.94470       638.74799       639.22351       11700000.     0.057000000       2.6226790       4.5626040       10.000000       8.0000000   4.9088963e+18       24.683040
       645.03600       644.79633       645.43622       2200000.0     0.017200000       1.5169170       3.4385070       8.0000000       10.000000   1.5607967e+19       27.287760
       648.53700       648.16266       648.96667       5800000.0     0.036600000       1.6553690       3.5666100       10.000000       10.000000   3.1612304e+19       27.024125
       661.19500       660.85706       661.51239       1880000.0    0.0082000000       1.3940320       3.2686810       6.0000000       4.0000000   9.6146871e+18       27.876747
       662.13000       661.92230       662.41449       303000.00    0.0029900000      0.75244900       2.6244490       4.0000000       6.0000000   4.7727191e+18       28.596200
       686.62300       686.33264       687.05481       2580000.0     0.013700000       1.5169170       3.3221270       8.0000000       6.0000000   1.4364875e+19       27.556258
       740.78900       740.63153       741.17944       2030000.0     0.011100000       1.3940320       3.0672490       6.0000000       4.0000000   1.0174576e+19       27.856583
