n_lines = 41
Unit of Inte: [ph/(s m^2 sr)]
Assumed plasma length [m] = 0.00500000
Te [eV] = 0.58481026+/-0.032345214
Intercept = 35.344070+/-0.32796563
bestnorm: the value of the summed squared residuals for the returned parameter values.
bestnorm = 2.9468826

 Wavelength(nm) wavel_l(nm) wavel_u(nm) Aki(s^-1) fik Ei(eV) Ek(eV) gi gk Iki ln(Iki/gk*Aki)
       379.20150       379.13123       379.34128       900000.00    0.0019400000       0.0000000       3.2686810       4.0000000       4.0000000   2.7800931e+19       29.675157
       400.68350       400.56757       400.91339       760000.00    0.0024500000      0.24922100       3.3426710       6.0000000       8.0000000   4.0203219e+19       29.519963
       402.69440       402.57275       402.87070       3600000.0    0.0088000000      0.75244900       3.8304510       4.0000000       4.0000000   3.8076420e+19       28.603388
       406.13990       406.01288       406.31345       6500000.0     0.032200000      0.75003200       3.8019330       2.0000000       4.0000000   6.4394841e+19       28.537958
       406.46300       406.41370       406.61426       3830000.0    0.0095000000      0.75244900       3.8019330       4.0000000       4.0000000   3.8787538e+19       28.559961
       406.79080       406.61426       406.94040       840000.00    0.0028000000      0.24922100       3.2962350       6.0000000       8.0000000   5.2062451e+19       29.678377
       413.61980       413.52002       413.85190       1820000.0    0.0035000000      0.49146300       3.4881570       8.0000000       6.0000000   5.1426426e+19       29.180577
       414.78910       414.69553       414.97711       1790000.0    0.0036900000      0.69692000       3.6851760       10.000000       8.0000000   5.7146252e+19       29.014978
       438.60680       438.51056       438.86313       1030000.0    0.0045000000      0.75244900       3.5784330       4.0000000       6.0000000   4.7622657e+19       29.673011
       457.43060       457.29550       457.72037       1230000.0    0.0038400000       0.0000000       2.7096830       4.0000000       4.0000000   7.5236665e+19       30.358351
       461.95120       461.76248       462.19159       5300000.0     0.011200000       1.1472790       3.8304510       6.0000000       4.0000000   7.5508123e+19       28.901260
       466.91430       466.64993       467.19949       2850000.0    0.0062000000       1.1472790       3.8019330       6.0000000       4.0000000   5.4670599e+19       29.198734
       474.01630       473.93417       474.34552       5000000.0     0.016900000       1.2368430       3.8517350       4.0000000       4.0000000   3.7927998e+19       28.270978
       478.09350       478.00494       478.39029       2160000.0    0.0059000000       1.3254310       3.9180180       10.000000       8.0000000   4.6147129e+19       28.613306
       481.27490       481.09647       481.48434       1200000.0    0.0042000000       0.0000000       2.5754390       4.0000000       4.0000000   7.7255903e+19       30.409529
       482.54290       482.41058       482.76959       2630000.0    0.0092000000       1.3940320       3.9627110       6.0000000       6.0000000   5.3274504e+19       28.847736
       488.39500       488.33939       488.58173       1110000.0    0.0053000000       1.1472790       3.6851760       6.0000000       8.0000000   3.8199781e+19       29.090049
       492.60050       492.47580       492.90366       1530000.0    0.0056000000      0.75244900       3.2686810       4.0000000       4.0000000   6.5907927e+19       30.007718
       506.78700       506.63919       507.01663       2920000.0    0.0084000000       1.5169170       3.9627110       8.0000000       6.0000000   3.9306155e+19       28.439059
       513.64670       513.44525       513.89160       4500000.0     0.017800000      0.75003200       3.1631630       2.0000000       2.0000000   9.4161260e+19       29.978805
       514.16200       514.08307       514.33838       1200000.0    0.0023800000      0.75244900       3.1631630       4.0000000       2.0000000   3.0946496e+19       30.187812
       514.36870       514.33838       514.68970       1680000.0    0.0044000000       1.1472790       3.5570210       6.0000000       4.0000000   2.4626572e+19       28.929759
       514.76200       514.68970       515.04132       900000.00    0.0023800000       1.3940320       3.8019330       6.0000000       4.0000000   2.4123915e+19       29.533291
       540.25070       539.99640       540.46613       1350000.0    0.0029600000       0.0000000       2.2942930       4.0000000       2.0000000   9.0390714e+19       31.141911
       543.52670       543.46191       543.79956       1070000.0    0.0071000000       1.3576540       3.6381250       4.0000000       6.0000000   3.3760038e+19       29.290881
       562.06840       561.99957       562.34875       600000.00    0.0035500000       1.5169170       3.7221540       8.0000000       10.000000   2.5900941e+19       29.093541
       564.59110       564.30829       564.86938       1430000.0    0.0091000000       1.1472790       3.3426710       6.0000000       8.0000000   7.7554733e+19       29.544889
       581.11040       580.88043       581.49408       570000.00    0.0021500000      0.49146300       2.6244490       8.0000000       6.0000000   8.8982683e+19       30.889822
       587.73550       587.48346       588.03094       2330000.0     0.014500000       1.6553690       3.7643110       10.000000       12.000000   1.1620152e+20       29.055572
       593.97650       593.79199       594.23462       1600000.0     0.016900000       1.2099580       3.2967440       2.0000000       4.0000000   5.7812735e+19       29.831932
       594.40240       594.23462       594.86218       2130000.0     0.017000000       1.2368430       3.3221270       4.0000000       6.0000000   9.7061648e+19       29.658486
       599.72340       599.53436       600.16748       2400000.0     0.012900000       1.6553690       3.7221540       10.000000       10.000000   1.1122953e+20       29.164563
       630.95790       630.71735       631.22614       1830000.0     0.016400000       1.3576540       3.3221270       4.0000000       6.0000000   1.1715754e+20       29.998465
       632.50830       632.40186       633.18683       340000.00    0.0041000000      0.75003200       2.7096830       2.0000000       4.0000000   4.2667017e+19       31.076963
       638.94470       638.70837       639.22351       11700000.     0.057000000       2.6226790       4.5626040       10.000000       8.0000000   5.0865526e+19       27.021176
       645.03600       644.83630       645.35620       2200000.0     0.017200000       1.5169170       3.4385070       8.0000000       10.000000   1.1537176e+20       29.288138
       648.53700       648.24304       649.12762       5800000.0     0.036600000       1.6553690       3.5666100       10.000000       10.000000   2.3862267e+20       29.045462
       661.19500       660.89795       661.47137       1880000.0    0.0082000000       1.3940320       3.2686810       6.0000000       4.0000000   7.8367062e+19       29.974859
       662.13000       661.79926       662.53760       303000.00    0.0029900000      0.75244900       2.6244490       4.0000000       6.0000000   5.4996952e+19       31.040562
       686.62300       686.37512       686.96979       2580000.0     0.013700000       1.5169170       3.3221270       8.0000000       6.0000000   1.2698890e+20       29.735572
       740.78900       740.40332       741.13379       2030000.0     0.011100000       1.3940320       3.0672490       6.0000000       4.0000000   8.8366115e+19       30.018180
